subj,age,sex,phase,block,trial,cue,resp,out,numResp,RT,AOI_cue_p1,AOI_cue_p2,AOI_resp_p1,AOI_resp_p2,AOI_out_p1,AOI_out_p2,tOutFix,nFix_p1,nFix_p2,samples_p1,samples_p2,raw_NA_p1,raw_NA_p2,post_interp_NA_p1,post_interp_NA_p2,ICU,ICU_medSplit
P1048_Exp7,19,F,1,1,1,2,2,6,2,6973.43432993921,910,84,4783,342,0,300,233,25,4,837,99,34,0,0,0,18,Low
P1048_Exp7,19,F,1,1,2,1,1,5,2,11575.3642508867,3877,0,6282,409,0,259,258,24,3,1389,100,36,9,0,0,18,Low
P1048_Exp7,19,F,1,1,3,3,3,7,1,1120.18493506821,167,125,724,242,0,308,267,5,3,134,99,4,0,0,0,18,Low
P1048_Exp7,19,F,1,1,4,4,4,8,1,2877.64659836466,1017,0,1366,417,0,267,300,8,3,346,100,6,0,0,0,18,Low
P1048_Exp7,19,F,1,2,5,2,2,6,1,3461.85625736825,876,209,1886,308,0,167,216,10,4,416,98,26,0,0,0,18,Low
P1048_Exp7,19,F,1,2,6,4,4,8,4,6283.11952051172,343,191,5006,341,75,0,NA,15,4,754,100,49,0,0,0,18,Low
P1048_Exp7,19,F,1,2,7,3,3,7,1,1892.33881799009,341,0,1450,491,0,0,NA,3,3,227,100,0,21,0,0,18,Low
P1048_Exp7,19,F,1,2,8,1,1,5,2,3568.22544170427,600,133,2551,425,0,0,NA,11,2,428,99,5,15,0,0,18,Low
P1048_Exp7,19,F,1,3,9,3,3,7,2,6265.37483388529,1125,0,4175,467,0,75,325,19,3,752,99,18,18,0,0,18,Low
P1048_Exp7,19,F,1,3,10,4,4,8,1,2603.31845491555,425,301,1851,317,0,0,NA,10,3,312,99,12,14,0,0,18,Low
P1048_Exp7,19,F,1,3,11,1,1,5,1,1498.64694061898,216,241,1025,184,0,175,225,4,3,180,99,17,22,0,0,18,Low
P1048_Exp7,19,F,1,3,12,2,2,6,1,2424.61016199377,683,92,1441,258,0,191,209,7,4,291,98,3,23,0,0,18,Low
P1048_Exp7,19,F,1,4,13,1,1,5,1,1727.62030318381,0,209,1168,275,0,0,NA,7,2,207,100,15,28,0,28,18,Low
P1048_Exp7,19,F,1,4,14,2,2,6,1,2395.33455170886,383,200,1783,208,0,0,NA,8,4,288,99,5,0,0,0,18,Low
P1048_Exp7,19,F,1,4,15,4,4,8,1,1611.73198520009,175,0,1133,791,0,0,NA,5,2,193,100,0,2,0,0,18,Low
P1048_Exp7,19,F,1,4,16,3,3,7,1,668.958707782167,0,175,516,450,0,0,NA,3,3,81,98,0,10,0,0,18,Low
P1048_Exp7,19,F,1,5,17,4,4,8,1,2318.22613734403,725,142,1158,333,0,0,NA,8,3,278,99,3,20,0,0,18,Low
P1048_Exp7,19,F,1,5,18,2,2,6,1,1139.65759070834,250,133,708,568,0,0,NA,3,3,137,98,0,0,0,0,18,Low
P1048_Exp7,19,F,1,5,19,1,1,5,1,871.971105936609,309,466,475,300,0,0,NA,3,2,104,99,1,1,0,0,18,Low
P1048_Exp7,19,F,1,5,20,3,3,7,1,766.197080009988,258,358,442,333,0,0,NA,2,2,92,99,0,11,0,0,18,Low
P1048_Exp7,19,F,1,6,21,4,4,8,1,2275.04298901431,549,150,1216,567,0,0,NA,9,3,273,98,1,1,0,0,18,Low
P1048_Exp7,19,F,1,6,22,2,2,6,1,1120.90252606458,675,300,400,450,0,0,NA,2,2,135,98,0,0,0,0,18,Low
P1048_Exp7,19,F,1,6,23,3,3,7,1,2469.87373678394,1934,484,392,275,0,0,NA,6,2,296,99,0,0,0,0,18,Low
P1048_Exp7,19,F,1,6,24,1,1,5,1,707.55496251968,200,317,358,291,0,0,NA,4,3,85,100,3,1,0,0,18,Low
P1048_Exp7,19,F,2,7,25,6,2,10,3,10911.5554782206,1684,0,6576,325,0,374,267,26,4,1310,98,149,5,73,0,18,Low
P1048_Exp7,19,F,2,7,26,8,4,12,2,4338.92806562608,767,150,2982,234,0,250,275,13,3,521,98,30,1,0,0,18,Low
P1048_Exp7,19,F,2,7,27,5,1,9,2,1779.06950618171,141,0,1500,651,0,0,NA,4,3,213,100,1,21,0,0,18,Low
P1048_Exp7,19,F,2,7,28,7,3,11,1,1085.75540754373,150,359,757,300,0,0,NA,4,3,130,99,2,15,0,0,18,Low
P1048_Exp7,19,F,2,8,29,6,2,10,1,1891.11882054385,441,175,1182,183,0,233,217,6,3,227,98,2,5,0,0,18,Low
P1048_Exp7,19,F,2,8,30,7,3,11,1,1208.61774539389,158,241,775,533,0,0,NA,3,2,145,100,0,0,0,0,18,Low
P1048_Exp7,19,F,2,8,31,8,4,12,1,1377.1885582687,0,191,1265,191,0,309,225,4,3,165,100,0,0,0,0,18,Low
P1048_Exp7,19,F,2,8,32,5,1,9,1,381.089705703744,125,117,200,225,0,216,359,2,3,46,99,0,18,0,0,18,Low
P1048_Exp7,19,F,2,9,33,6,2,10,1,4337.81442376085,941,217,2732,183,0,300,217,13,3,520,99,38,0,29,0,18,Low
P1048_Exp7,19,F,2,9,34,5,1,9,3,2554.9078061249,316,208,2042,258,0,0,NA,4,2,306,96,1,27,0,0,18,Low
P1048_Exp7,19,F,2,9,35,7,3,11,1,574.549851550273,0,0,67,525,0,0,NA,1,5,69,100,0,0,0,0,18,Low
P1048_Exp7,19,F,2,9,36,8,4,12,1,192.500818536246,0,366,141,83,0,0,NA,1,4,24,99,0,25,0,0,18,Low
P1048_Exp7,19,F,2,10,37,6,2,10,1,2922.04630610695,633,0,1818,0,0,300,8,8,2,351,98,18,26,0,0,18,Low
P1048_Exp7,19,F,2,10,38,5,1,9,1,2333.33384862181,642,191,1483,184,0,200,233,7,3,280,99,0,3,0,0,18,Low
P1048_Exp7,19,F,2,10,39,8,4,12,2,2312.52278220018,292,0,1633,192,0,0,NA,6,2,278,99,0,22,0,0,18,Low
P1048_Exp7,19,F,2,10,40,7,3,11,1,700.256582838847,117,184,275,291,0,0,NA,3,3,84,99,5,33,0,33,18,Low
P1048_Exp7,19,F,2,11,41,5,1,9,1,2727.60851747444,1274,0,1167,333,0,0,NA,10,2,328,99,21,22,0,0,18,Low
P1048_Exp7,19,F,2,11,42,6,2,10,1,2514.25705834708,992,0,1265,534,0,208,317,8,4,302,99,4,2,0,0,18,Low
P1048_Exp7,19,F,2,11,43,8,4,12,1,965.867897093631,175,0,625,776,0,0,NA,4,2,116,99,1,0,0,0,18,Low
P1048_Exp7,19,F,2,11,44,7,3,11,1,449.069125871574,0,0,400,808,0,0,NA,1,1,54,99,0,0,0,0,18,Low
P1048_Exp7,19,F,2,12,45,5,1,9,1,581.597454638995,141,250,334,334,0,0,NA,3,4,70,99,0,1,0,0,18,Low
P1048_Exp7,19,F,2,12,46,7,3,11,1,1280.45595626827,0,217,841,524,0,0,NA,4,3,153,100,1,0,0,0,18,Low
P1048_Exp7,19,F,2,12,47,8,4,12,1,1024.24783571041,341,0,458,758,0,0,NA,4,2,123,100,0,0,0,0,18,Low
P1048_Exp7,19,F,2,12,48,6,2,10,1,433.429908734979,225,433,158,309,0,0,NA,2,2,52,99,0,0,0,0,18,Low
P1048_Exp7,19,F,3,13,49,10,2,14,2,5215.87029318607,891,0,3332,242,0,508,275,11,2,626,100,52,0,29,0,18,Low
P1048_Exp7,19,F,3,13,50,11,3,15,1,2324.83467736074,458,0,1783,491,0,226,308,3,3,279,98,0,0,0,0,18,Low
P1048_Exp7,19,F,3,13,51,9,1,13,2,2232.64603100461,234,184,1508,484,0,0,NA,7,3,267,100,24,10,0,0,18,Low
P1048_Exp7,19,F,3,13,52,12,4,16,1,368.5724824104,0,358,283,0,0,192,591,1,3,44,99,0,0,0,0,18,Low
P1048_Exp7,19,F,3,14,53,9,1,13,2,1805.93445589966,359,0,1116,458,0,234,283,4,3,216,99,19,3,0,0,18,Low
P1048_Exp7,19,F,3,14,54,12,4,16,1,1254.79581738091,200,0,524,700,0,0,NA,6,3,151,98,1,2,0,0,18,Low
P1048_Exp7,19,F,3,14,55,11,3,15,1,1062.34415738436,326,200,550,508,0,0,NA,5,4,128,99,2,2,0,0,18,Low
P1048_Exp7,19,F,3,14,56,10,2,14,1,294.096059495132,241,184,0,491,0,0,NA,1,3,35,100,0,1,0,0,18,Low
P1048_Exp7,19,F,3,15,57,9,1,13,2,3522.70336099082,216,117,1867,241,0,150,284,9,4,423,99,85,0,57,0,18,Low
P1048_Exp7,19,F,3,15,58,11,3,15,1,957.399952325432,300,200,467,267,0,0,NA,3,3,115,100,0,1,0,0,18,Low
P1048_Exp7,19,F,3,15,59,10,2,14,2,1897.01718972083,358,0,1300,200,0,234,300,8,3,228,98,1,23,0,0,18,Low
P1048_Exp7,19,F,3,15,60,12,4,16,1,414.138428590377,317,242,0,324,0,0,NA,2,3,50,99,0,25,0,0,18,Low
P1048_Exp7,19,F,3,16,61,10,2,14,1,3158.99169962677,742,0,1649,67,0,208,316,10,4,379,99,26,0,0,0,18,Low
P1048_Exp7,19,F,3,16,62,9,1,13,1,2223.64816337176,633,0,1283,642,0,0,NA,6,3,267,98,0,25,0,0,18,Low
P1048_Exp7,19,F,3,16,63,12,4,16,2,2337.20469708305,0,0,2007,550,0,0,NA,8,3,280,99,9,25,0,0,18,Low
P1048_Exp7,19,F,3,16,64,11,3,15,1,372.316260686148,150,358,175,358,0,0,NA,2,3,45,98,0,4,0,0,18,Low
P1048_Exp7,19,F,3,17,65,12,4,16,1,1302.15651398566,200,0,742,541,0,0,NA,5,4,156,99,17,2,0,0,18,Low
P1048_Exp7,19,F,3,17,66,11,3,15,1,1004.69819594309,334,0,608,666,0,0,NA,3,2,121,98,0,2,0,0,18,Low
P1048_Exp7,19,F,3,17,67,10,2,14,2,2599.06110282736,750,217,1491,225,0,234,316,7,3,312,100,1,2,0,0,18,Low
P1048_Exp7,19,F,3,17,68,9,1,13,1,871.247294347995,142,0,517,701,0,0,NA,4,2,105,98,1,10,0,0,18,Low
P1048_Exp7,19,F,3,18,69,11,3,15,1,1002.86634473514,192,0,609,524,0,0,NA,4,2,120,99,10,29,0,0,18,Low
P1048_Exp7,19,F,3,18,70,12,4,16,1,1244.66328410563,400,0,716,726,0,0,NA,5,3,149,100,1,2,0,0,18,Low
P1048_Exp7,19,F,3,18,71,9,1,13,1,700.270495632594,191,0,383,742,0,0,NA,4,2,84,99,0,24,0,0,18,Low
P1048_Exp7,19,F,3,18,72,10,2,14,1,218.284626702825,0,500,192,234,0,0,NA,1,3,26,99,0,0,0,0,18,Low
P1049_Exp7,18,M,1,1,1,2,2,6,3,5269.16247761983,633,133,3760,233,0,392,250,15,3,632,100,7,0,0,0,22,Low
P1049_Exp7,18,M,1,1,2,3,3,7,1,6693.2377328485,600,250,4708,183,391,242,217,14,4,803,99,59,0,0,0,22,Low
P1049_Exp7,18,M,1,1,3,1,1,5,4,3919.09030113311,150,266,3349,167,0,275,208,11,3,470,99,5,2,0,0,22,Low
P1049_Exp7,18,M,1,1,4,4,4,8,3,4833.21651739243,458,317,3525,192,0,209,233,13,3,580,99,37,0,0,0,22,Low
P1049_Exp7,18,M,1,2,5,1,1,5,1,4788.64549058198,692,75,3389,0,0,425,250,13,3,574,99,21,0,0,0,22,Low
P1049_Exp7,18,M,1,2,6,4,4,8,1,1923.42923782417,466,142,800,0,66,392,217,7,3,231,98,0,0,0,0,22,Low
P1049_Exp7,18,M,1,2,7,3,3,7,2,3727.55441216577,1507,317,1640,450,0,0,NA,8,2,447,100,0,0,0,0,22,Low
P1049_Exp7,18,M,1,2,8,2,2,6,1,1745.31548497907,658,250,658,0,0,241,259,5,3,209,100,0,0,0,0,22,Low
P1049_Exp7,18,M,1,3,9,1,1,5,1,1902.4877003103,391,0,667,192,0,275,233,6,3,228,99,21,0,0,0,22,Low
P1049_Exp7,18,M,1,3,10,3,3,7,2,8978.2255498867,4024,241,3456,225,0,208,267,19,3,1078,98,52,13,0,0,22,Low
P1049_Exp7,18,M,1,3,11,4,4,8,1,1486.51185540075,283,249,934,0,0,0,NA,5,3,178,99,0,13,0,0,22,Low
P1049_Exp7,18,M,1,3,12,2,2,6,1,3404.40905716969,692,216,2318,0,0,208,300,8,3,409,98,13,0,0,0,22,Low
P1049_Exp7,18,M,1,4,13,1,1,5,1,1454.42957080377,167,241,1109,450,0,0,NA,6,3,175,98,1,0,0,0,22,Low
P1049_Exp7,18,M,1,4,14,2,2,6,1,2365.76859066554,909,375,1034,375,0,0,NA,7,3,283,100,8,0,0,0,22,Low
P1049_Exp7,18,M,1,4,15,4,4,8,1,1271.54372961377,359,0,742,666,0,0,NA,6,2,153,98,0,0,0,0,22,Low
P1049_Exp7,18,M,1,4,16,3,3,7,1,8862.95155905827,3216,200,4384,126,0,175,275,20,5,1063,99,66,0,0,0,22,Low
P1049_Exp7,18,M,1,5,17,4,4,8,1,2769.69410094898,799,0,1341,208,0,283,250,6,3,333,99,28,27,28,0,22,Low
P1049_Exp7,18,M,1,5,18,2,2,6,1,2387.02362979529,1057,216,1084,225,0,217,267,9,3,286,99,2,0,0,0,22,Low
P1049_Exp7,18,M,1,5,19,1,1,5,1,1316.05508600478,275,84,849,241,0,350,300,5,3,157,99,0,0,0,0,22,Low
P1049_Exp7,18,M,1,5,20,3,3,7,1,1152.96900569228,367,0,675,242,0,525,291,4,2,138,99,0,1,0,0,22,Low
P1049_Exp7,18,M,1,6,21,2,2,6,1,1356.40435278765,358,0,851,733,0,0,NA,4,2,162,99,0,0,0,0,22,Low
P1049_Exp7,18,M,1,6,22,4,4,8,1,975.464014874888,0,475,883,250,0,0,NA,3,3,117,100,4,0,0,0,22,Low
P1049_Exp7,18,M,1,6,23,1,1,5,1,1281.94246100611,317,83,850,500,0,0,NA,4,3,154,99,1,7,0,0,22,Low
P1049_Exp7,18,M,1,6,24,3,3,7,1,920.856916796765,308,0,550,0,0,392,92,2,3,110,99,0,0,0,0,22,Low
P1049_Exp7,18,M,2,7,25,6,2,10,3,3654.82729120413,592,0,2416,500,0,242,233,7,3,438,99,37,1,30,0,22,Low
P1049_Exp7,18,M,2,7,26,7,3,11,2,4298.939566841,934,266,2367,225,0,192,275,12,4,516,100,62,0,26,0,22,Low
P1049_Exp7,18,M,2,7,27,8,4,12,2,2830.46147500863,558,125,1634,225,0,350,267,8,3,340,99,6,0,0,0,22,Low
P1049_Exp7,18,M,2,7,28,5,1,9,3,4356.89068221836,525,267,3231,166,0,225,217,9,3,523,98,17,0,0,0,22,Low
P1049_Exp7,18,M,2,8,29,7,3,11,1,1998.80566392676,284,142,958,183,0,208,242,8,4,240,99,8,24,0,0,22,Low
P1049_Exp7,18,M,2,8,30,8,4,12,1,1279.65056008543,425,242,708,0,0,208,234,4,3,154,99,0,5,0,0,22,Low
P1049_Exp7,18,M,2,8,31,5,1,9,1,1045.78051238786,418,133,508,66,0,233,292,4,4,125,100,0,13,0,0,22,Low
P1049_Exp7,18,M,2,8,32,6,2,10,1,701.497294896399,133,0,225,159,0,391,192,3,3,84,99,1,0,0,0,22,Low
P1049_Exp7,18,M,2,9,33,8,4,12,1,3104.45540223736,1133,0,825,183,0,191,225,9,3,373,98,29,25,0,0,22,Low
P1049_Exp7,18,M,2,9,34,6,2,10,1,2628.1654311606,758,192,1251,258,0,183,300,10,4,315,100,3,17,0,0,22,Low
P1049_Exp7,18,M,2,9,35,7,3,11,1,1082.98270516389,325,175,658,0,0,417,50,4,4,130,99,3,21,0,0,22,Low
P1049_Exp7,18,M,2,9,36,5,1,9,1,705.365360787255,309,0,292,192,0,583,233,3,2,84,99,1,0,0,0,22,Low
P1049_Exp7,18,M,2,10,37,7,3,11,1,4613.53751955903,1908,209,1715,0,0,241,250,15,3,554,100,44,2,0,0,22,Low
P1049_Exp7,18,M,2,10,38,8,4,12,1,1131.11169716285,208,0,732,183,0,559,225,5,2,136,99,0,0,0,0,22,Low
P1049_Exp7,18,M,2,10,39,5,1,9,1,1416.04262632609,291,0,1017,208,0,133,325,3,3,170,99,0,0,0,0,22,Low
P1049_Exp7,18,M,2,10,40,6,2,10,1,520.732381832204,242,0,225,742,0,0,NA,2,2,63,98,0,6,0,0,22,Low
P1049_Exp7,18,M,2,11,41,8,4,12,1,2997.94245234807,351,0,2425,808,0,0,NA,5,1,360,99,0,1,0,0,22,Low
P1049_Exp7,18,M,2,11,42,7,3,11,1,1205.81227065122,0,0,1141,758,0,0,NA,2,2,145,98,0,1,0,0,22,Low
P1049_Exp7,18,M,2,11,43,5,1,9,1,1335.39727056632,0,0,1050,750,0,0,NA,4,2,160,99,3,0,0,0,22,Low
P1049_Exp7,18,M,2,11,44,6,2,10,1,867.528249917086,167,0,592,801,0,0,NA,4,2,104,99,0,0,0,0,22,Low
P1049_Exp7,18,M,2,12,45,5,1,9,1,1444.98123782978,142,134,642,225,275,0,NA,5,4,173,100,3,19,0,0,22,Low
P1049_Exp7,18,M,2,12,46,6,2,10,1,852.340116500272,150,0,333,0,0,491,92,3,3,103,98,0,0,0,0,22,Low
P1049_Exp7,18,M,2,12,47,7,3,11,1,660.177224257495,308,109,292,100,0,366,275,2,4,79,100,0,0,0,0,22,Low
P1049_Exp7,18,M,2,12,48,8,4,12,1,1155.74692688824,67,0,550,158,0,617,191,3,2,139,98,2,0,0,0,22,Low
P1049_Exp7,18,M,3,13,49,9,1,13,1,1388.0027813284,583,100,559,0,0,383,225,4,3,167,98,8,1,0,0,22,Low
P1049_Exp7,18,M,3,13,50,11,3,15,1,1351.08008112002,691,242,366,0,0,275,208,3,4,162,99,0,0,0,0,22,Low
P1049_Exp7,18,M,3,13,51,10,2,14,1,1002.51172306889,625,67,300,167,0,241,259,4,4,121,98,0,0,0,0,22,Low
P1049_Exp7,18,M,3,13,52,12,4,16,1,1428.26393374708,858,0,491,0,0,359,250,2,3,171,100,2,0,0,0,22,Low
P1049_Exp7,18,M,3,14,53,10,2,14,1,1434.82922663679,633,0,649,67,0,484,216,4,3,172,99,0,0,0,0,22,Low
P1049_Exp7,18,M,3,14,54,12,4,16,1,1819.84724989161,582,0,733,0,0,767,16,6,2,219,98,11,0,0,0,22,Low
P1049_Exp7,18,M,3,14,55,11,3,15,1,1259.24110964115,266,0,642,159,0,625,200,3,2,151,100,0,0,0,0,22,Low
P1049_Exp7,18,M,3,14,56,9,1,13,1,1554.05754270032,750,117,541,0,0,533,83,5,2,187,98,1,1,0,0,22,Low
P1049_Exp7,18,M,3,15,57,12,4,16,1,1433.24409564957,358,0,950,542,0,159,266,4,3,172,99,2,0,0,0,22,Low
P1049_Exp7,18,M,3,15,58,11,3,15,1,777.678807993652,399,0,275,574,0,0,NA,4,3,94,99,6,0,0,0,22,Low
P1049_Exp7,18,M,3,15,59,10,2,14,1,1228.24927892361,0,0,1208,683,0,0,NA,1,3,147,100,0,5,0,0,22,Low
P1049_Exp7,18,M,3,15,60,9,1,13,1,469.255971591338,0,0,450,283,0,459,358,1,2,56,99,0,0,0,0,22,Low
P1049_Exp7,18,M,3,16,61,12,4,16,1,1226.50739712117,534,0,383,116,191,367,8,3,3,148,99,0,0,0,0,22,Low
P1049_Exp7,18,M,3,16,62,11,3,15,1,778.755967432517,250,0,417,434,0,258,200,3,4,93,100,0,0,0,0,22,Low
P1049_Exp7,18,M,3,16,63,10,2,14,1,1941.4002392441,0,0,1041,183,300,591,217,6,2,233,98,31,0,0,0,22,Low
P1049_Exp7,18,M,3,16,64,9,1,13,1,791.945296121412,0,0,725,0,0,658,83,2,3,95,100,0,1,0,0,22,Low
P1049_Exp7,18,M,3,17,65,12,4,16,1,3101.09870880842,0,0,2676,242,0,225,274,5,4,372,99,0,2,0,0,22,Low
P1049_Exp7,18,M,3,17,66,11,3,15,1,560.349526480422,300,0,191,0,0,466,25,2,2,67,100,0,0,0,0,22,Low
P1049_Exp7,18,M,3,17,67,9,1,13,1,2301.0731710965,491,92,1434,649,0,0,NA,7,2,276,99,22,0,0,0,22,Low
P1049_Exp7,18,M,3,17,68,10,2,14,1,874.21659375832,317,0,467,192,0,400,225,3,4,105,100,0,13,0,0,22,Low
P1049_Exp7,18,M,3,18,69,12,4,16,1,854.858332197182,225,533,275,209,0,0,NA,3,2,103,98,3,0,0,0,22,Low
P1049_Exp7,18,M,3,18,70,9,1,13,1,1094.8469175346,333,475,592,267,0,0,NA,4,2,131,100,8,0,0,0,22,Low
P1049_Exp7,18,M,3,18,71,10,2,14,1,738.335590824136,141,67,508,209,0,384,75,3,3,89,99,0,1,0,0,22,Low
P1049_Exp7,18,M,3,18,72,11,3,15,1,801.246153496322,291,0,358,0,0,784,8,3,2,97,98,0,0,0,0,22,Low
P1101_Exp7,19,F,1,1,1,2,2,6,3,7701.40607429494,575,0,4902,200,0,583,242,32,2,924,100,198,9,68,0,24,Low
P1101_Exp7,19,F,1,1,2,1,1,5,3,8395.08966459834,525,0,4348,192,134,516,292,34,2,1008,98,230,11,57,0,24,Low
P1101_Exp7,19,F,1,1,3,3,3,7,2,5334.21550480125,658,0,3141,250,0,483,250,21,3,641,99,145,1,0,0,24,Low
P1101_Exp7,19,F,1,1,4,4,4,8,2,4805.36988902895,608,0,2275,333,0,166,241,20,5,577,99,186,5,71,0,24,Low
P1101_Exp7,19,F,1,2,5,3,3,7,3,6404.1017263371,0,0,3291,192,25,549,225,30,2,768,99,270,7,105,0,24,Low
P1101_Exp7,19,F,1,2,6,2,2,6,3,8312.46523743903,275,0,3918,58,0,475,258,30,4,1000,98,453,32,306,0,24,Low
P1101_Exp7,19,F,1,2,7,1,1,5,1,2455.14018951508,0,0,550,0,0,317,383,13,4,295,99,100,22,0,0,24,Low
P1101_Exp7,19,F,1,2,8,4,4,8,3,3746.10095153912,0,0,2533,200,0,259,491,10,7,450,99,143,6,33,0,24,Low
P1101_Exp7,19,F,1,3,9,2,2,6,4,9831.90212347836,1242,0,4976,175,50,592,208,22,2,1181,98,478,31,284,0,24,Low
P1101_Exp7,19,F,1,3,10,3,3,7,1,10103.2397231902,50,0,2449,183,718,517,233,28,3,1215,99,712,5,585,0,24,Low
P1101_Exp7,19,F,1,3,11,4,4,8,1,3597.09507942898,0,0,1033,142,175,542,241,13,5,432,99,223,8,157,0,24,Low
P1101_Exp7,19,F,1,3,12,1,1,5,1,2148.23232316121,192,0,1059,184,0,567,208,8,2,257,100,84,33,0,0,24,Low
P1101_Exp7,19,F,1,4,13,4,4,8,1,3228.88454055646,459,0,1665,0,0,317,266,14,4,387,100,137,14,32,0,24,Low
P1101_Exp7,19,F,1,4,14,3,3,7,2,4842.96801644086,0,0,1752,125,74,0,NA,22,2,582,98,195,71,0,35,24,Low
P1101_Exp7,19,F,1,4,15,1,1,5,1,2368.33760867012,233,0,1365,188,0,458,280,11,3,285,99,49,24,0,0,24,Low
P1101_Exp7,19,F,1,4,16,2,2,6,1,674.095663460321,150,0,308,250,0,316,234,3,4,81,100,7,26,0,0,24,Low
P1101_Exp7,19,F,1,5,17,4,4,8,1,8502.18940325431,1725,0,2394,191,0,125,400,20,4,1023,99,480,3,321,0,24,Low
P1101_Exp7,19,F,1,5,18,3,3,7,2,4381.48763171921,142,NA,1774,NA,0,NA,NA,12,NA,526,100,244,100,213,100,24,Low
P1101_Exp7,19,F,1,5,19,1,1,5,1,2172.59045840183,0,0,742,192,0,258,225,8,4,261,98,120,22,0,1,24,Low
P1101_Exp7,19,F,1,5,20,2,2,6,1,806.571950713987,299,0,450,267,0,225,241,2,4,96,99,24,40,0,0,24,Low
P1101_Exp7,19,F,1,6,21,3,3,7,3,18276.2416898477,1316,0,4729,242,167,500,267,55,2,2197,100,1100,2,724,0,24,Low
P1101_Exp7,19,F,1,6,22,4,4,8,1,7481.41210094036,633,275,4160,0,0,434,383,24,3,897,100,144,12,57,0,24,Low
P1101_Exp7,19,F,1,6,23,1,1,5,1,1266.11846305605,183,0,883,592,0,0,NA,5,3,152,99,27,5,0,0,24,Low
P1101_Exp7,19,F,1,6,24,2,2,6,1,233.705463353544,0,67,225,0,0,0,NA,1,1,28,99,0,88,0,62,24,Low
P1101_Exp7,19,F,2,7,25,6,2,10,4,13446.6565031471,2224,0,7446,200,42,476,291,38,3,1613,99,240,2,147,0,24,Low
P1101_Exp7,19,F,2,7,26,7,3,11,1,5587.84773760999,400,75,2577,191,408,450,217,28,3,671,98,213,2,55,0,24,Low
P1101_Exp7,19,F,2,7,27,5,1,9,1,2473.7464843347,184,0,1042,0,0,325,405,7,1,297,99,133,86,89,48,24,Low
P1101_Exp7,19,F,2,7,28,8,4,12,1,1663.44931723143,257,0,834,0,0,292,533,10,2,200,100,17,0,0,0,24,Low
P1101_Exp7,19,F,2,8,29,7,3,11,1,3012.61762843933,92,0,1001,179,0,475,221,8,3,362,100,177,10,153,0,24,Low
P1101_Exp7,19,F,2,8,30,5,1,9,2,3571.67060913343,208,0,2292,183,0,492,233,13,4,428,99,106,0,69,0,24,Low
P1101_Exp7,19,F,2,8,31,6,2,10,2,3412.32941808994,141,158,2475,183,33,283,334,14,3,409,100,13,35,0,0,24,Low
P1101_Exp7,19,F,2,8,32,8,4,12,3,6131.58896291861,351,100,3350,242,0,325,250,18,4,736,100,152,4,139,0,24,Low
P1101_Exp7,19,F,2,9,33,7,3,11,1,1572.29359119083,300,0,1099,275,0,500,8,5,2,188,98,1,0,0,0,24,Low
P1101_Exp7,19,F,2,9,34,5,1,9,2,2046.82135378243,349,200,1341,217,0,0,NA,7,4,246,99,2,1,0,0,24,Low
P1101_Exp7,19,F,2,9,35,6,2,10,1,3239.23222639132,183,0,1158,325,0,292,175,5,3,390,98,246,41,181,0,24,Low
P1101_Exp7,19,F,2,9,36,8,4,12,1,693.507042786223,117,192,257,258,0,242,233,5,4,84,99,12,15,0,0,24,Low
P1101_Exp7,19,F,2,10,37,5,1,9,1,2855.68859924388,0,0,1226,175,0,208,200,16,3,344,98,148,2,57,0,24,Low
P1101_Exp7,19,F,2,10,38,6,2,10,1,3421.62437242223,175,0,2025,175,0,325,192,9,2,411,98,82,25,80,0,24,Low
P1101_Exp7,19,F,2,10,39,8,4,12,1,3444.24032206007,950,0,1218,466,75,217,217,9,5,413,100,135,0,58,0,24,Low
P1101_Exp7,19,F,2,10,40,7,3,11,1,409.745047290926,125,0,217,241,0,233,233,2,3,50,99,17,30,0,26,24,Low
P1101_Exp7,19,F,2,11,41,6,2,10,1,5726.79716415587,501,0,2710,166,0,317,217,20,2,687,99,228,32,115,31,24,Low
P1101_Exp7,19,F,2,11,42,5,1,9,1,1759.32084751548,292,0,1167,150,0,609,200,5,4,211,100,29,0,0,0,24,Low
P1101_Exp7,19,F,2,11,43,7,3,11,1,4833.66007686709,358,0,3166,525,25,208,217,20,3,580,99,53,7,27,0,24,Low
P1101_Exp7,19,F,2,11,44,8,4,12,1,926.312814917765,150,0,650,200,0,491,225,4,2,112,99,5,5,0,0,24,Low
P1101_Exp7,19,F,2,12,45,5,1,9,1,1345.94549973554,150,0,773,467,0,0,NA,8,2,162,99,17,41,0,35,24,Low
P1101_Exp7,19,F,2,12,46,8,4,12,2,6341.25257424603,416,0,3341,442,0,275,241,20,3,761,98,263,16,115,0,24,Low
P1101_Exp7,19,F,2,12,47,7,3,11,1,1220.47412801476,183,0,916,175,0,258,208,4,2,146,99,12,30,0,30,24,Low
P1101_Exp7,19,F,2,12,48,6,2,10,1,949.383866085554,0,0,684,183,0,208,233,2,3,114,99,1,25,0,0,24,Low
P1101_Exp7,19,F,3,13,49,11,3,15,1,2501.96741758555,474,0,1434,150,0,616,200,13,2,301,99,24,0,0,0,24,Low
P1101_Exp7,19,F,3,13,50,10,2,14,2,8314.0682955418,2249,42,3700,225,350,441,275,25,3,998,98,92,0,67,0,24,Low
P1101_Exp7,19,F,3,13,51,9,1,13,1,2424.78627696983,283,125,1259,400,0,200,425,8,3,291,99,2,1,0,0,24,Low
P1101_Exp7,19,F,3,13,52,12,4,16,1,1416.4979874331,259,133,950,75,0,492,325,5,3,170,99,0,1,0,0,24,Low
P1101_Exp7,19,F,3,14,53,9,1,13,2,3880.01056131907,250,0,2500,175,0,542,217,11,2,465,100,100,2,54,0,24,Low
P1101_Exp7,19,F,3,14,54,12,4,16,1,1571.64278363052,359,92,634,158,0,392,200,6,6,189,98,24,1,0,0,24,Low
P1101_Exp7,19,F,3,14,55,11,3,15,1,1791.11983113398,492,0,1066,350,0,133,242,6,3,215,98,0,28,0,28,24,Low
P1101_Exp7,19,F,3,14,56,10,2,14,1,832.78852031799,442,0,291,217,0,533,208,4,3,100,99,0,0,0,0,24,Low
P1101_Exp7,19,F,3,15,57,9,1,13,1,4160.06341741013,1709,175,1016,0,0,450,100,6,3,499,98,127,11,121,0,24,Low
P1101_Exp7,19,F,3,15,58,12,4,16,1,1815.80878068053,450,0,841,416,225,258,233,7,5,218,99,15,1,0,0,24,Low
P1101_Exp7,19,F,3,15,59,10,2,14,1,705.091417592485,292,0,333,175,0,275,200,3,2,85,98,0,28,0,27,24,Low
P1101_Exp7,19,F,3,15,60,11,3,15,1,430.108058790211,241,0,133,209,0,575,234,2,3,52,99,0,0,0,0,24,Low
P1101_Exp7,19,F,3,16,61,12,4,16,2,6451.83390153397,400,0,3173,191,0,134,225,16,2,775,99,240,28,143,27,24,Low
P1101_Exp7,19,F,3,16,62,11,3,15,1,662.258694937918,275,0,218,216,0,209,275,3,3,80,99,11,30,0,29,24,Low
P1101_Exp7,19,F,3,16,63,10,2,14,1,2813.67858391604,483,0,1264,184,0,183,233,19,3,338,100,8,33,0,33,24,Low
P1101_Exp7,19,F,3,16,64,9,1,13,1,669.078725462896,67,0,342,217,0,417,241,3,6,80,99,7,4,0,0,24,Low
P1101_Exp7,19,F,3,17,65,10,2,14,2,15089.7026165039,725,0,5894,258,58,125,266,54,3,1814,100,622,52,417,35,24,Low
P1101_Exp7,19,F,3,17,66,9,1,13,1,1193.54708059109,333,0,691,475,0,225,216,5,4,144,99,42,1,0,0,24,Low
P1101_Exp7,19,F,3,17,67,12,4,16,1,1667.13681459078,317,0,1058,208,0,183,233,5,4,200,99,0,24,0,0,24,Low
P1101_Exp7,19,F,3,17,68,11,3,15,1,473.603646736592,233,0,183,242,0,533,292,2,2,57,100,0,0,0,0,24,Low
P1101_Exp7,19,F,3,18,69,10,2,14,1,3212.19758703955,708,0,1758,166,0,375,200,10,3,385,100,48,3,26,0,24,Low
P1101_Exp7,19,F,3,18,70,11,3,15,1,1867.15363356052,692,0,1017,266,0,508,309,5,2,224,99,4,0,0,0,24,Low
P1101_Exp7,19,F,3,18,71,9,1,13,1,752.525859934394,368,0,250,167,0,250,200,5,3,90,99,0,26,0,0,24,Low
P1101_Exp7,19,F,3,18,72,12,4,16,1,765.469355930691,0,0,500,209,0,474,234,3,4,92,99,0,2,0,0,24,Low
P1104_Exp7,19,M,1,1,1,3,3,7,4,5468.56393578855,484,0,4042,208,0,564,233,17,6,656,101,0,0,0,0,25,High
P1104_Exp7,19,M,1,1,2,2,2,6,2,4333.38742980777,900,0,2691,183,0,491,209,13,3,520,99,0,1,0,0,25,High
P1104_Exp7,19,M,1,1,3,4,4,8,2,3421.24483126827,333,0,2515,191,167,600,217,10,2,410,99,2,0,0,0,25,High
P1104_Exp7,19,M,1,1,4,1,1,5,1,3252.0424727627,466,0,2359,183,0,450,234,8,4,391,99,14,5,0,0,25,High
P1104_Exp7,19,M,1,2,5,3,3,7,1,2128.90428088213,275,0,1409,242,150,550,275,7,2,255,100,0,0,0,0,25,High
P1104_Exp7,19,M,1,2,6,2,2,6,2,3779.4929639349,175,0,2870,485,0,258,242,17,4,454,100,16,0,0,0,25,High
P1104_Exp7,19,M,1,2,7,4,4,8,4,6299.21224616919,366,67,4843,309,0,334,358,21,3,756,100,3,0,0,0,25,High
P1104_Exp7,19,M,1,2,8,1,1,5,1,6963.58947821136,809,0,4239,208,0,575,250,26,2,836,100,112,1,0,0,25,High
P1104_Exp7,19,M,1,3,9,4,4,8,1,3920.62509167226,874,0,2332,441,0,158,217,15,6,471,99,15,0,0,0,25,High
P1104_Exp7,19,M,1,3,10,2,2,6,1,4346.81269916837,133,0,3615,509,0,166,217,14,4,522,100,17,9,0,0,25,High
P1104_Exp7,19,M,1,3,11,3,3,7,2,6099.20191975107,183,0,5243,534,0,182,242,17,5,732,100,2,0,0,0,25,High
P1104_Exp7,19,M,1,3,12,1,1,5,2,3259.93847152495,183,192,2408,258,0,208,184,15,4,391,100,0,20,0,0,25,High
P1104_Exp7,19,M,1,4,13,2,2,6,1,2754.71667462261,324,83,1909,217,0,200,250,8,4,331,98,18,13,0,0,25,High
P1104_Exp7,19,M,1,4,14,4,4,8,1,3980.70906955763,451,317,2526,183,0,92,258,15,3,477,100,3,15,0,0,25,High
P1104_Exp7,19,M,1,4,15,1,1,5,1,1691.22683424212,141,0,1300,249,0,0,NA,5,2,203,99,3,64,0,52,25,High
P1104_Exp7,19,M,1,4,16,3,3,7,1,2032.96630369368,183,0,1599,500,0,233,358,8,3,244,99,3,0,0,0,25,High
P1104_Exp7,19,M,1,5,17,1,1,5,1,3473.02871977081,175,0,2624,67,0,517,291,10,3,417,98,15,1,0,0,25,High
P1104_Exp7,19,M,1,5,18,4,4,8,1,5101.63017356899,1216,0,3119,0,0,717,100,19,1,612,99,18,0,0,0,25,High
P1104_Exp7,19,M,1,5,19,2,2,6,1,3071.31441091042,341,0,2359,184,0,600,217,9,2,368,99,6,0,0,0,25,High
P1104_Exp7,19,M,1,5,20,3,3,7,2,3812.47844542304,184,0,2907,417,0,184,266,13,4,457,100,10,16,0,0,25,High
P1104_Exp7,19,M,1,6,21,1,1,5,1,4736.34863803818,574,0,3357,350,0,166,242,18,6,568,100,10,13,0,0,25,High
P1104_Exp7,19,M,1,6,22,2,2,6,1,3809.11988656953,266,183,2425,225,0,325,258,15,3,457,98,13,20,0,0,25,High
P1104_Exp7,19,M,1,6,23,3,3,7,1,2185.10874146523,233,0,1317,233,0,542,275,9,2,262,99,1,0,0,0,25,High
P1104_Exp7,19,M,1,6,24,4,4,8,1,1074.34369928887,191,0,633,0,0,233,284,5,2,129,98,0,32,0,32,25,High
P1104_Exp7,19,M,2,7,25,7,3,11,1,3567.32839211327,667,0,2290,259,0,475,350,14,2,428,100,30,0,0,0,25,High
P1104_Exp7,19,M,2,7,26,5,1,9,1,3542.89745033384,759,0,1936,367,0,375,225,13,3,425,98,13,1,0,0,25,High
P1104_Exp7,19,M,2,7,27,8,4,12,4,9241.72812276083,1958,0,6121,150,0,575,191,27,2,1109,99,34,6,0,0,25,High
P1104_Exp7,19,M,2,7,28,6,2,10,1,1802.07628995777,200,50,1308,225,0,450,266,6,3,216,99,0,0,0,0,25,High
P1104_Exp7,19,M,2,8,29,7,3,11,1,2172.68087692719,133,0,1433,425,0,325,233,9,3,261,98,40,0,0,0,25,High
P1104_Exp7,19,M,2,8,30,8,4,12,4,3598.47335985251,142,183,3006,108,0,392,400,11,4,432,100,8,6,0,0,25,High
P1104_Exp7,19,M,2,8,31,5,1,9,1,4141.705336624,359,325,2615,192,0,175,233,15,4,498,98,55,1,0,0,25,High
P1104_Exp7,19,M,2,8,32,6,2,10,1,1255.99651004086,175,0,933,408,0,158,292,4,3,151,98,0,17,0,0,25,High
P1104_Exp7,19,M,2,9,33,5,1,9,1,1782.18247891346,434,166,1051,233,0,266,275,7,3,214,99,0,14,0,0,25,High
P1104_Exp7,19,M,2,9,34,6,2,10,1,959.854045064276,183,0,516,724,0,0,NA,3,2,115,100,0,35,0,0,25,High
P1104_Exp7,19,M,2,9,35,8,4,12,2,4369.94450014754,949,0,2759,300,0,242,258,14,6,525,99,1,15,0,0,25,High
P1104_Exp7,19,M,2,9,36,7,3,11,1,4673.6966686185,684,150,3178,208,0,350,259,18,4,561,99,17,0,0,0,25,High
P1104_Exp7,19,M,2,10,37,5,1,9,1,1600.01613889108,384,0,876,242,0,391,292,5,2,192,99,0,13,0,0,25,High
P1104_Exp7,19,M,2,10,38,6,2,10,1,801.953547819721,141,0,549,675,0,0,NA,3,3,96,99,0,7,0,0,25,High
P1104_Exp7,19,M,2,10,39,8,4,12,1,1403.86956189832,250,133,908,225,0,0,NA,6,4,168,99,0,28,0,28,25,High
P1104_Exp7,19,M,2,10,40,7,3,11,1,1685.25514442808,225,359,1201,200,0,141,234,6,3,203,98,0,0,0,0,25,High
P1104_Exp7,19,M,2,11,41,5,1,9,1,1793.2753384448,266,0,1266,225,0,550,275,7,2,215,100,15,0,0,0,25,High
P1104_Exp7,19,M,2,11,42,6,2,10,1,851.338863223646,125,266,609,291,0,0,NA,4,4,102,98,0,21,0,0,25,High
P1104_Exp7,19,M,2,11,43,7,3,11,1,5930.83093955283,1399,0,2700,441,0,233,484,22,4,712,100,84,0,0,0,25,High
P1104_Exp7,19,M,2,11,44,8,4,12,1,858.409985336039,67,292,417,242,0,0,NA,4,3,103,100,0,24,0,0,25,High
P1104_Exp7,19,M,2,12,45,6,2,10,1,873.137496237177,116,41,441,440,0,0,NA,5,7,104,98,7,16,0,0,25,High
P1104_Exp7,19,M,2,12,46,5,1,9,1,3872.35466727725,1009,0,1918,0,0,342,425,23,3,465,98,47,20,0,0,25,High
P1104_Exp7,19,M,2,12,47,8,4,12,1,6998.21915686334,2290,0,3049,324,0,199,284,50,7,840,99,51,0,0,0,25,High
P1104_Exp7,19,M,2,12,48,7,3,11,1,1194.1041725222,150,300,702,207,0,116,259,7,4,143,100,0,13,0,0,25,High
P1104_Exp7,19,M,3,13,49,12,4,16,3,3214.57057410225,266,0,1907,142,0,407,225,22,5,385,99,22,11,0,0,25,High
P1104_Exp7,19,M,3,13,50,9,1,13,3,3173.11155652715,234,166,2395,183,0,125,442,18,4,381,99,21,11,0,0,25,High
P1104_Exp7,19,M,3,13,51,10,2,14,4,4238.07430258967,575,0,3029,192,0,584,233,16,2,509,99,15,17,0,0,25,High
P1104_Exp7,19,M,3,13,52,11,3,15,1,1372.31030078692,275,0,922,242,0,341,283,4,4,165,95,16,12,0,0,25,High
P1104_Exp7,19,M,3,14,53,10,2,14,1,3527.25261971136,691,0,2134,425,0,175,259,13,4,423,100,21,16,0,0,25,High
P1104_Exp7,19,M,3,14,54,9,1,13,3,3473.80939351206,410,0,2499,92,0,100,300,13,5,417,98,30,23,0,0,25,High
P1104_Exp7,19,M,3,14,55,12,4,16,4,4830.45940496959,533,0,3259,484,0,0,NA,25,2,580,99,27,27,0,0,25,High
P1104_Exp7,19,M,3,14,56,11,3,15,1,1170.74977515222,150,0,808,200,0,392,250,6,4,140,99,3,15,0,0,25,High
P1104_Exp7,19,M,3,15,57,10,2,14,1,1772.99536887949,500,0,925,201,0,158,350,7,4,213,98,16,12,0,0,25,High
P1104_Exp7,19,M,3,15,58,11,3,15,1,1063.38008355669,293,341,624,266,0,116,309,7,4,127,100,0,0,0,0,25,High
P1104_Exp7,19,M,3,15,59,12,4,16,1,830.449511395273,258,466,416,283,0,0,NA,4,3,99,100,3,0,0,0,25,High
P1104_Exp7,19,M,3,15,60,9,1,13,1,1039.0956903284,66,192,533,208,0,50,341,6,3,125,98,13,24,0,0,25,High
P1104_Exp7,19,M,3,16,61,12,4,16,1,1208.11285351374,292,0,749,654,0,0,NA,4,2,145,100,3,29,0,0,25,High
P1104_Exp7,19,M,3,16,62,9,1,13,1,1273.03571610901,0,291,917,392,0,0,NA,7,4,153,98,0,1,0,0,25,High
P1104_Exp7,19,M,3,16,63,10,2,14,1,1142.871232365,117,100,888,399,0,150,292,4,4,138,100,14,14,0,0,25,High
P1104_Exp7,19,M,3,16,64,11,3,15,1,905.833590721159,41,66,717,241,0,0,NA,4,3,109,99,1,22,0,0,25,High
P1104_Exp7,19,M,3,17,65,10,2,14,3,5069.10166047965,416,0,3600,250,0,525,291,21,2,609,99,38,3,0,0,25,High
P1104_Exp7,19,M,3,17,66,12,4,16,1,1153.18744641627,150,333,842,375,0,0,NA,5,2,139,98,0,23,0,0,25,High
P1104_Exp7,19,M,3,17,67,11,3,15,1,1051.90508476881,0,359,883,259,0,92,300,5,3,126,99,0,22,0,0,25,High
P1104_Exp7,19,M,3,17,68,9,1,13,2,1301.2580605573,58,292,1083,108,0,150,309,5,4,156,99,0,16,0,0,25,High
P1104_Exp7,19,M,3,18,69,11,3,15,1,2184.66106628694,341,308,1058,259,0,125,292,10,3,262,99,14,19,0,0,25,High
P1104_Exp7,19,M,3,18,70,10,2,14,1,1786.83740500128,133,508,1167,208,0,0,NA,6,2,215,99,34,19,34,0,25,High
P1104_Exp7,19,M,3,18,71,9,1,13,4,4915.39974827174,216,217,3516,75,0,317,508,15,3,590,100,21,16,0,0,25,High
P1104_Exp7,19,M,3,18,72,12,4,16,1,2269.67499303646,209,267,1701,175,0,241,342,9,3,272,99,15,0,0,0,25,High
P1133_Exp7,18,M,1,1,1,3,3,7,1,4004.7770646288,350,0,2270,0,158,550,224,14,2,482,100,85,0,0,0,28,High
P1133_Exp7,18,M,1,1,2,1,1,5,3,6041.88422651168,1614,242,3029,141,0,322,167,13,3,728,99,152,16,62,0,28,High
P1133_Exp7,18,M,1,1,3,2,2,6,1,2989.31288733547,488,0,1483,0,0,492,225,12,3,360,99,78,40,0,0,28,High
P1133_Exp7,18,M,1,1,4,4,4,8,1,2038.34389514668,125,0,1299,125,0,583,172,11,3,245,100,85,28,0,0,28,High
P1133_Exp7,18,M,1,2,5,3,3,7,1,4238.97102012597,258,100,2886,0,0,350,192,15,6,510,99,83,14,0,0,28,High
P1133_Exp7,18,M,1,2,6,4,4,8,1,5490.52097787717,483,109,3406,0,0,358,84,17,3,661,99,157,25,28,0,28,High
P1133_Exp7,18,M,1,2,7,1,1,5,1,2052.55654319808,358,0,991,0,0,358,230,8,3,247,100,45,19,0,0,28,High
P1133_Exp7,18,M,1,2,8,2,2,6,3,5587.10267679635,254,0,3723,75,0,325,225,19,3,674,100,139,20,26,0,28,High
P1133_Exp7,18,M,1,3,9,4,4,8,1,2789.62162673633,275,0,1184,317,0,167,196,11,4,335,100,106,18,52,0,28,High
P1133_Exp7,18,M,1,3,10,3,3,7,3,4534.18877477634,458,0,2811,0,0,383,208,15,3,546,100,112,12,0,0,28,High
P1133_Exp7,18,M,1,3,11,1,1,5,1,3551.84436493437,1167,167,1523,263,0,125,259,11,5,427,100,116,12,26,0,28,High
P1133_Exp7,18,M,1,3,12,2,2,6,1,2657.11411307893,100,183,1791,0,0,250,233,11,3,319,100,59,17,0,0,28,High
P1133_Exp7,18,M,1,4,13,4,4,8,1,1253.72688380958,0,0,859,0,0,0,NA,4,3,151,99,36,38,0,0,28,High
P1133_Exp7,18,M,1,4,14,3,3,7,1,2205.27711981595,166,200,788,0,0,222,142,9,5,266,99,65,40,0,0,28,High
P1133_Exp7,18,M,1,4,15,1,1,5,1,1765.772389017,92,183,1080,66,0,142,275,6,4,212,100,49,26,0,0,28,High
P1133_Exp7,18,M,1,4,16,2,2,6,1,3168.08277136079,845,0,1297,0,0,192,255,10,3,382,100,71,27,0,0,28,High
P1133_Exp7,18,M,1,5,17,1,1,5,1,10776.4011124182,2901,183,2808,150,0,275,75,29,4,1294,99,446,3,228,0,28,High
P1133_Exp7,18,M,1,5,18,3,3,7,1,5202.85444611363,1491,0,1852,0,0,442,9,12,3,625,99,145,0,88,0,28,High
P1133_Exp7,18,M,1,5,19,2,2,6,1,1928.54662866375,242,216,1290,50,0,200,250,6,4,232,99,19,0,0,0,28,High
P1133_Exp7,18,M,1,5,20,4,4,8,1,1356.11700167465,141,0,617,150,0,116,217,6,3,162,99,27,22,0,0,28,High
P1133_Exp7,18,M,1,6,21,1,1,5,1,1550.64879586826,200,275,833,0,0,167,167,7,3,186,99,36,21,0,0,28,High
P1133_Exp7,18,M,1,6,22,2,2,6,1,1696.95590345873,92,159,1117,0,0,400,42,6,2,203,100,21,33,0,0,28,High
P1133_Exp7,18,M,1,6,23,4,4,8,1,1023.0067876455,150,0,583,200,0,92,241,4,3,123,98,3,36,0,34,28,High
P1133_Exp7,18,M,1,6,24,3,3,7,1,1032.0525491552,125,250,566,0,0,0,NA,5,2,124,99,1,33,0,30,28,High
P1133_Exp7,18,M,2,7,25,6,2,10,2,2992.13903081727,641,183,926,91,300,417,17,9,4,359,98,21,0,0,0,28,High
P1133_Exp7,18,M,2,7,26,7,3,11,1,1127.77196668867,0,134,525,150,0,343,58,4,4,136,99,30,33,0,0,28,High
P1133_Exp7,18,M,2,7,27,8,4,12,1,1236.06109096727,284,225,675,0,0,350,108,5,4,148,99,49,10,0,0,28,High
P1133_Exp7,18,M,2,7,28,5,1,9,1,3493.89462111503,333,376,1417,0,0,300,50,8,4,419,100,161,2,92,0,28,High
P1133_Exp7,18,M,2,8,29,6,2,10,1,1137.13087539327,133,175,476,225,0,133,267,4,3,137,98,33,31,0,0,28,High
P1133_Exp7,18,M,2,8,30,7,3,11,1,269.466489284241,0,117,216,200,0,0,NA,1,3,32,99,10,35,0,0,28,High
P1133_Exp7,18,M,2,8,31,8,4,12,1,877.986719815453,117,0,384,391,0,150,233,4,3,105,100,18,22,0,0,28,High
P1133_Exp7,18,M,2,8,32,5,1,9,1,901.306036310416,300,0,434,0,0,150,241,4,3,108,99,3,26,0,0,28,High
P1133_Exp7,18,M,2,9,33,8,4,12,1,1592.64330829137,300,0,968,241,0,0,NA,6,1,191,100,23,63,0,63,28,High
P1133_Exp7,18,M,2,9,34,5,1,9,1,905.871582835971,191,0,425,584,0,0,NA,4,2,109,98,3,18,0,0,28,High
P1133_Exp7,18,M,2,9,35,6,2,10,1,2080.37087065713,626,0,741,750,0,0,NA,6,2,249,100,83,3,27,0,28,High
P1133_Exp7,18,M,2,9,36,7,3,11,1,365.772715735147,0,350,349,225,0,0,NA,1,2,44,99,0,26,0,26,28,High
P1133_Exp7,18,M,2,10,37,6,2,10,1,3070.78745861509,450,0,1275,133,0,334,291,6,3,368,99,96,0,92,0,28,High
P1133_Exp7,18,M,2,10,38,7,3,11,1,684.196320664341,241,175,200,333,0,0,NA,3,3,83,98,0,26,0,26,28,High
P1133_Exp7,18,M,2,10,39,8,4,12,1,722.523476220886,291,0,283,567,0,0,NA,2,4,87,98,15,22,0,0,28,High
P1133_Exp7,18,M,2,10,40,5,1,9,1,281.655605000196,0,234,225,92,0,300,367,1,3,34,99,0,14,0,0,28,High
P1133_Exp7,18,M,2,11,41,6,2,10,1,995.755992607883,200,0,625,641,0,0,NA,4,2,119,100,1,25,0,0,28,High
P1133_Exp7,18,M,2,11,42,7,3,11,1,494.24584078406,0,0,409,308,0,342,183,3,3,59,100,0,18,0,0,28,High
P1133_Exp7,18,M,2,11,43,8,4,12,1,1141.22926265736,192,0,683,507,0,0,NA,5,3,137,100,1,28,0,27,28,High
P1133_Exp7,18,M,2,11,44,5,1,9,1,288.863955864144,0,575,233,0,0,0,NA,2,1,34,98,2,20,0,0,28,High
P1133_Exp7,18,M,2,12,45,6,2,10,1,1059.37838447062,158,0,633,500,0,0,NA,3,3,127,100,0,21,0,0,28,High
P1133_Exp7,18,M,2,12,46,8,4,12,1,1058.428916509,383,0,524,458,0,0,NA,4,2,127,100,20,57,0,37,28,High
P1133_Exp7,18,M,2,12,47,7,3,11,1,913.575536807912,150,266,617,225,0,0,NA,4,2,110,99,0,29,0,26,28,High
P1133_Exp7,18,M,2,12,48,5,1,9,1,397.752565124392,0,350,358,0,0,0,NA,1,2,48,99,3,44,0,33,28,High
P1133_Exp7,18,M,3,13,49,11,3,15,3,5147.68477910911,567,0,3110,0,266,650,100,20,3,618,99,26,0,0,0,28,High
P1133_Exp7,18,M,3,13,50,9,1,13,2,4578.34656539126,551,208,2227,116,0,258,150,14,5,549,100,138,9,108,0,28,High
P1133_Exp7,18,M,3,13,51,12,4,16,1,1706.25205019678,142,242,1092,0,0,234,258,7,4,204,98,26,1,0,0,28,High
P1133_Exp7,18,M,3,13,52,10,2,14,1,1383.4137747981,150,117,1057,0,0,200,192,4,4,166,99,0,0,0,0,28,High
P1133_Exp7,18,M,3,14,53,9,1,13,1,1997.28237597628,259,183,1200,192,0,150,191,8,4,240,99,16,21,0,0,28,High
P1133_Exp7,18,M,3,14,54,11,3,15,1,1846.10240464826,590,291,766,75,0,325,91,9,4,222,99,18,4,0,0,28,High
P1133_Exp7,18,M,3,14,55,12,4,16,1,812.08016341770394,350,0,359,475,0,216,59,3,3,97,100,1,2,0,0,28,High
P1133_Exp7,18,M,3,14,56,10,2,14,1,606.380449431526,284,0,241,0,0,158,234,3,3,73,98,0,18,0,0,28,High
P1133_Exp7,18,M,3,15,57,9,1,13,1,1417.52258425913,217,183,649,258,0,0,NA,4,3,170,99,57,21,55,0,28,High
P1133_Exp7,18,M,3,15,58,12,4,16,1,930.317213813396,300,342,517,208,0,0,NA,3,2,112,99,5,28,0,28,28,High
P1133_Exp7,18,M,3,15,59,10,2,14,1,3391.44050459436,709,0,1924,0,0,426,33,9,3,407,98,20,1,0,0,28,High
P1133_Exp7,18,M,3,15,60,11,3,15,1,1471.561564078,442,0,792,0,0,0,NA,4,1,177,98,14,4,0,0,28,High
P1133_Exp7,18,M,3,16,61,10,2,14,1,2395.88145470589,567,0,1226,100,0,508,42,6,3,287,100,22,17,0,0,28,High
P1133_Exp7,18,M,3,16,62,11,3,15,1,1652.25140773873,784,0,733,242,0,375,25,4,3,199,98,0,15,0,0,28,High
P1133_Exp7,18,M,3,16,63,12,4,16,1,1091.37833005479,267,284,599,309,0,0,NA,3,3,131,100,0,28,0,0,28,High
P1133_Exp7,18,M,3,16,64,9,1,13,1,625.072075779826,200,0,308,242,0,133,275,3,3,75,100,4,22,0,0,28,High
P1133_Exp7,18,M,3,17,65,11,3,15,1,1678.96203457713,442,0,867,267,0,0,NA,5,1,201,100,3,66,0,65,28,High
P1133_Exp7,18,M,3,17,66,10,2,14,1,1276.87209204123,225,141,725,0,0,0,NA,4,2,154,99,1,23,0,0,28,High
P1133_Exp7,18,M,3,17,67,9,1,13,1,1451.72167201599,533,0,516,542,0,0,NA,5,2,174,99,19,25,0,0,28,High
P1133_Exp7,18,M,3,17,68,12,4,16,1,418.155459841728,0,175,392,250,0,0,NA,1,4,50,99,0,27,0,0,28,High
P1133_Exp7,18,M,3,18,69,9,1,13,2,2595.55107324377,699,0,1242,125,0,0,NA,11,4,311,100,20,20,0,0,28,High
P1133_Exp7,18,M,3,18,70,10,2,14,1,2035.72608946888,949,0,700,292,0,0,NA,6,3,245,98,36,21,0,0,28,High
P1133_Exp7,18,M,3,18,71,12,4,16,1,779.139406693503,258,0,292,474,0,0,NA,3,2,93,100,3,23,0,0,28,High
P1133_Exp7,18,M,3,18,72,11,3,15,1,853.825527301524,308,0,467,776,0,0,NA,3,2,103,98,1,25,0,0,28,High
P1135_Exp7,19,F,1,1,1,3,3,7,3,3328.49321192589,375,0,2500,417,0,358,317,9,3,399,100,11,0,0,0,20,Low
P1135_Exp7,19,F,1,1,2,4,4,8,1,2575.93023547088,492,75,1684,341,0,100,267,8,5,309,100,31,3,0,0,20,Low
P1135_Exp7,19,F,1,1,3,2,2,6,1,1416.69843431191,225,0,943,775,0,0,NA,4,2,170,99,6,3,0,0,20,Low
P1135_Exp7,19,F,1,1,4,1,1,5,1,3760.43980641953,342,291,2875,109,0,0,NA,11,4,451,100,30,3,0,0,20,Low
P1135_Exp7,19,F,1,2,5,3,3,7,1,2504.92746310556,275,0,1933,417,0,309,241,7,4,301,98,10,0,0,0,20,Low
P1135_Exp7,19,F,1,2,6,2,2,6,2,3662.26897347769,317,0,2815,450,0,225,292,13,3,439,100,25,8,0,0,20,Low
P1135_Exp7,19,F,1,2,7,4,4,8,3,6265.77105097203,501,333,4434,217,0,0,NA,13,3,752,100,44,0,0,0,20,Low
P1135_Exp7,19,F,1,2,8,1,1,5,1,1147.74381705865,208,59,741,617,0,0,NA,4,3,138,99,0,24,0,0,20,Low
P1135_Exp7,19,F,1,3,9,4,4,8,1,2410.01099732421,391,0,1708,767,0,0,NA,8,2,289,100,6,4,0,0,20,Low
P1135_Exp7,19,F,1,3,10,2,2,6,2,2041.67049269563,158,0,1542,726,0,0,NA,5,2,245,98,2,26,0,0,20,Low
P1135_Exp7,19,F,1,3,11,3,3,7,3,4985.07430846257,209,325,3757,375,0,0,NA,14,2,598,99,64,8,30,0,20,Low
P1135_Exp7,19,F,1,3,12,1,1,5,1,4679.48379046175,1642,0,2169,575,0,0,NA,11,2,562,99,47,0,34,0,20,Low
P1135_Exp7,19,F,1,4,13,3,3,7,3,6105.97871706887,217,284,4739,359,0,0,NA,16,3,733,99,46,15,27,0,20,Low
P1135_Exp7,19,F,1,4,14,1,1,5,1,986.733646155699,183,0,667,750,0,0,NA,5,3,119,98,3,1,0,0,20,Low
P1135_Exp7,19,F,1,4,15,4,4,8,1,2124.23545096135,208,0,1451,610,0,0,NA,6,5,254,99,25,41,0,0,20,Low
P1135_Exp7,19,F,1,4,16,2,2,6,1,2792.76427356672,0,159,2266,550,0,0,NA,7,3,335,98,35,4,0,0,20,Low
P1135_Exp7,19,F,1,5,17,3,3,7,1,1301.4179035963,142,0,749,542,0,0,NA,4,3,156,99,23,1,0,0,20,Low
P1135_Exp7,19,F,1,5,18,1,1,5,1,1563.93798832141,167,0,1201,750,0,0,NA,6,2,188,99,8,5,0,0,20,Low
P1135_Exp7,19,F,1,5,19,2,2,6,2,2628.53034374348,184,0,2099,542,0,0,NA,7,2,315,100,27,28,0,28,20,Low
P1135_Exp7,19,F,1,5,20,4,4,8,2,4580.21631679003,742,0,2882,458,0,0,NA,13,2,550,100,56,38,0,34,20,Low
P1135_Exp7,19,F,1,6,21,2,2,6,3,5379.16902025427,492,67,3701,433,0,0,NA,13,3,646,100,52,28,0,26,20,Low
P1135_Exp7,19,F,1,6,22,4,4,8,2,4736.15232144948,1124,0,3215,683,0,0,NA,11,3,569,99,36,28,0,0,20,Low
P1135_Exp7,19,F,1,6,23,1,1,5,1,985.950508020323,159,250,684,449,0,0,NA,5,3,119,98,23,9,0,0,20,Low
P1135_Exp7,19,F,1,6,24,3,3,7,2,2925.18047268277,493,0,1924,475,0,0,NA,9,2,351,98,20,32,0,29,20,Low
P1135_Exp7,19,F,2,7,25,6,2,10,1,4026.61834892933,908,0,2225,525,0,200,450,12,3,483,98,59,1,33,0,20,Low
P1135_Exp7,19,F,2,7,26,5,1,9,1,5070.68710555177,834,0,1608,574,0,175,216,11,3,610,99,240,1,222,0,20,Low
P1135_Exp7,19,F,2,7,27,8,4,12,2,5819.44105641196,1724,0,2007,466,0,0,NA,23,5,698,99,45,8,0,0,20,Low
P1135_Exp7,19,F,2,7,28,7,3,11,2,3455.48866057288,625,0,2093,566,0,0,NA,9,2,415,98,66,2,45,0,20,Low
P1135_Exp7,19,F,2,8,29,8,4,12,4,6498.93412209713,592,216,4666,509,0,0,NA,13,3,780,100,48,0,30,0,20,Low
P1135_Exp7,19,F,2,8,30,7,3,11,1,2355.28098829309,674,0,1299,200,0,276,458,6,6,283,98,5,0,0,0,20,Low
P1135_Exp7,19,F,2,8,31,5,1,9,2,3564.84696034022,441,300,2367,174,0,158,217,11,3,428,99,4,24,0,0,20,Low
P1135_Exp7,19,F,2,8,32,6,2,10,3,5270.95250064667,258,0,3728,316,0,67,750,17,4,633,99,41,0,0,0,20,Low
P1135_Exp7,19,F,2,9,33,5,1,9,4,4788.5981518175,158,467,3574,183,0,0,NA,11,3,574,99,31,4,0,0,20,Low
P1135_Exp7,19,F,2,9,34,7,3,11,2,9323.11543666219,1991,0,5434,508,0,66,750,28,4,1118,100,94,5,29,0,20,Low
P1135_Exp7,19,F,2,9,35,8,4,12,1,2360.73729379132,1075,291,867,342,0,0,NA,6,6,283,100,8,4,0,0,20,Low
P1135_Exp7,19,F,2,9,36,6,2,10,1,2515.46411832896,241,175,1892,167,0,108,233,8,4,302,99,12,26,0,0,20,Low
P1135_Exp7,19,F,2,10,37,5,1,9,4,5732.20602252695,233,0,3626,216,0,0,NA,20,2,688,100,20,0,0,0,20,Low
P1135_Exp7,19,F,2,10,38,7,3,11,3,4988.91085055948,800,0,2494,459,0,0,NA,16,3,599,98,55,7,30,0,20,Low
P1135_Exp7,19,F,2,10,39,6,2,10,2,3811.06923862535,608,0,2383,674,0,0,NA,7,3,458,100,38,34,26,0,20,Low
P1135_Exp7,19,F,2,10,40,8,4,12,2,2082.27804464696,259,0,1117,416,0,0,NA,5,3,250,99,53,17,0,0,20,Low
P1135_Exp7,19,F,2,11,41,7,3,11,2,3502.78797794817,233,0,2959,451,0,174,233,8,5,421,98,7,1,0,0,20,Low
P1135_Exp7,19,F,2,11,42,6,2,10,2,4346.04317369667,400,0,2840,384,0,258,242,16,6,521,100,39,30,0,0,20,Low
P1135_Exp7,19,F,2,11,43,8,4,12,4,5299.44166239147,542,283,4309,458,0,0,NA,8,2,636,99,39,3,0,0,20,Low
P1135_Exp7,19,F,2,11,44,5,1,9,4,4940.93629682902,250,466,4323,284,0,0,NA,11,2,593,98,36,0,0,0,20,Low
P1135_Exp7,19,F,2,12,45,6,2,10,2,2961.73135053687,267,0,1861,550,0,67,758,13,4,355,100,7,24,0,0,20,Low
P1135_Exp7,19,F,2,12,46,8,4,12,1,5586.86016022148,391,0,4052,682,0,0,NA,21,6,671,99,53,8,0,0,20,Low
P1135_Exp7,19,F,2,12,47,5,1,9,1,1007.7401749877,217,0,516,484,0,0,NA,3,3,121,100,4,3,0,0,20,Low
P1135_Exp7,19,F,2,12,48,7,3,11,2,3569.74737070595,250,0,2526,500,0,208,217,11,4,428,99,31,2,0,0,20,Low
P1135_Exp7,19,F,3,13,49,9,1,13,2,4638.91426693408,2025,358,1940,133,0,225,175,7,3,557,99,27,0,27,0,20,Low
P1135_Exp7,19,F,3,13,50,10,2,14,1,3643.74944155497,1866,0,1550,175,0,600,217,5,2,438,99,7,0,0,0,20,Low
P1135_Exp7,19,F,3,13,51,11,3,15,2,3848.24124735678,958,175,2475,217,0,292,266,10,3,462,99,4,0,0,0,20,Low
P1135_Exp7,19,F,3,13,52,12,4,16,4,4998.77257860317,2032,300,2508,283,0,0,NA,10,4,600,99,31,25,0,0,20,Low
P1135_Exp7,19,F,3,14,53,9,1,13,4,4494.66071691859,533,0,2825,217,0,493,258,16,4,539,100,3,2,0,0,20,Low
P1135_Exp7,19,F,3,14,54,11,3,15,1,1607.97088074105,308,0,1000,0,0,783,25,5,1,193,98,2,0,0,0,20,Low
P1135_Exp7,19,F,3,14,55,10,2,14,2,5393.15142144369,958,175,3519,167,0,225,208,18,4,647,99,19,0,0,0,20,Low
P1135_Exp7,19,F,3,14,56,12,4,16,4,5567.24677013517,1616,0,3257,708,0,0,NA,15,3,668,100,33,2,0,0,20,Low
P1135_Exp7,19,F,3,15,57,11,3,15,1,2196.3688732103,758,0,1231,425,0,193,233,7,7,263,100,29,3,0,0,20,Low
P1135_Exp7,19,F,3,15,58,12,4,16,1,2654.01247765112,375,0,1405,409,0,0,NA,10,3,319,98,29,4,0,0,20,Low
P1135_Exp7,19,F,3,15,59,9,1,13,1,1683.18800602174,516,159,858,175,0,367,208,6,3,202,99,6,4,0,0,20,Low
P1135_Exp7,19,F,3,15,60,10,2,14,1,1280.93171486944,342,0,808,366,0,192,234,3,5,154,99,2,28,0,0,20,Low
P1135_Exp7,19,F,3,16,61,12,4,16,1,2537.50761727679,1366,125,183,266,0,0,NA,5,3,304,99,4,10,0,0,20,Low
P1135_Exp7,19,F,3,16,62,11,3,15,1,926.15808136361,459,0,367,758,0,0,NA,4,2,112,99,1,6,0,0,20,Low
P1135_Exp7,19,F,3,16,63,10,2,14,2,1795.40987681503,325,0,1318,800,0,0,NA,4,2,215,100,4,4,0,0,20,Low
P1135_Exp7,19,F,3,16,64,9,1,13,1,619.359619939132,0,200,584,225,0,0,NA,1,2,75,98,6,40,0,32,20,Low
P1135_Exp7,19,F,3,17,65,11,3,15,1,1607.641610266,275,0,952,557,0,0,NA,8,5,193,98,1,3,0,0,20,Low
P1135_Exp7,19,F,3,17,66,12,4,16,1,936.790889751137,425,0,307,650,0,0,NA,6,4,113,98,4,1,0,0,20,Low
P1135_Exp7,19,F,3,17,67,10,2,14,2,2076.97230696067,350,0,1383,592,0,158,275,4,4,249,100,2,4,0,0,20,Low
P1135_Exp7,19,F,3,17,68,9,1,13,1,811.414895330017,42,0,500,743,0,0,NA,3,3,98,99,1,3,0,0,20,Low
P1135_Exp7,19,F,3,18,69,12,4,16,1,1512.89240770166,366,367,373,333,0,0,NA,6,5,181,100,5,7,0,0,20,Low
P1135_Exp7,19,F,3,18,70,9,1,13,2,1934.48383220129,492,91,1017,242,0,0,NA,5,2,232,99,2,57,0,42,20,Low
P1135_Exp7,19,F,3,18,71,11,3,15,1,1698.08030675085,424,0,725,666,0,0,NA,7,3,203,100,13,4,0,0,20,Low
P1135_Exp7,19,F,3,18,72,10,2,14,1,1103.22644873486,0,0,692,226,0,358,359,2,6,133,96,1,1,0,0,20,Low
P1155_Exp7,19,F,1,1,1,3,3,7,2,5934.25275955815,1042,0,4230,175,0,575,208,15,4,712,99,40,0,0,0,17,Low
P1155_Exp7,19,F,1,1,2,2,2,6,4,11068.5764571244,751,0,9295,192,0,600,225,25,2,1328,100,106,0,0,0,17,Low
P1155_Exp7,19,F,1,1,3,4,4,8,1,8193.71987483464,1798,183,5283,0,0,441,375,15,3,983,99,66,0,0,0,17,Low
P1155_Exp7,19,F,1,1,4,1,1,5,1,4445.04584136303,1384,0,2425,374,0,308,250,10,3,533,101,33,0,0,0,17,Low
P1155_Exp7,19,F,1,2,5,4,4,8,4,6421.59041660489,1551,0,4068,241,0,500,209,16,3,771,99,32,0,0,0,17,Low
P1155_Exp7,19,F,1,2,6,1,1,5,2,4169.30663146195,1217,183,2306,0,0,484,250,11,3,501,99,8,4,0,0,17,Low
P1155_Exp7,19,F,1,2,7,2,2,6,1,2705.3118601907,317,0,1783,158,0,559,250,11,2,325,98,12,0,0,0,17,Low
P1155_Exp7,19,F,1,2,8,3,3,7,1,2286.09928104561,300,0,1708,175,0,600,217,7,2,274,99,12,0,0,0,17,Low
P1155_Exp7,19,F,1,3,9,1,1,5,3,4598.54446077952,1592,0,2549,208,0,492,250,12,2,552,99,22,0,0,0,17,Low
P1155_Exp7,19,F,1,3,10,2,2,6,1,2020.71891917149,292,83,1466,300,0,250,217,6,5,243,99,12,16,0,0,17,Low
P1155_Exp7,19,F,1,3,11,4,4,8,2,4380.74925524415,250,0,3673,375,0,300,209,9,3,526,99,20,13,0,0,17,Low
P1155_Exp7,19,F,1,3,12,3,3,7,2,5428.56969239074,999,0,3493,192,0,600,225,13,2,651,100,52,0,34,0,17,Low
P1155_Exp7,19,F,1,4,13,1,1,5,2,12717.4078110838,2117,133,8072,367,0,175,233,27,4,1526,99,197,0,108,0,17,Low
P1155_Exp7,19,F,1,4,14,4,4,8,3,4512.87998727639,300,0,3798,532,0,234,225,8,3,542,100,21,0,0,0,17,Low
P1155_Exp7,19,F,1,4,15,3,3,7,3,10938.0432230246,1785,0,8067,183,0,558,225,20,3,1313,99,54,0,0,0,17,Low
P1155_Exp7,19,F,1,4,16,2,2,6,1,1229.75122870412,300,0,833,192,0,592,233,3,2,147,100,16,0,0,0,17,Low
P1155_Exp7,19,F,1,5,17,1,1,5,1,1312.15701668407,242,0,584,508,0,217,216,4,4,158,99,15,0,0,0,17,Low
P1155_Exp7,19,F,1,5,18,3,3,7,1,2780.93129640911,624,0,1841,591,0,125,233,7,3,333,100,12,19,0,0,17,Low
P1155_Exp7,19,F,1,5,19,4,4,8,4,5101.55008803122,433,225,3598,200,0,166,250,14,3,612,100,31,13,0,0,17,Low
P1155_Exp7,19,F,1,5,20,2,2,6,2,2615.22249988047,158,142,1998,191,0,259,316,7,4,314,99,30,0,0,0,17,Low
P1155_Exp7,19,F,1,6,21,1,1,5,2,5902.99071150366,1509,116,3376,382,0,117,216,15,4,708,100,34,15,0,0,17,Low
P1155_Exp7,19,F,1,6,22,4,4,8,3,7151.90636375337,1167,0,5083,175,0,608,217,16,2,858,100,47,0,0,0,17,Low
P1155_Exp7,19,F,1,6,23,2,2,6,2,5525.54062980926,634,0,4332,166,0,558,225,14,3,663,99,28,22,0,0,17,Low
P1155_Exp7,19,F,1,6,24,3,3,7,1,3734.14720784058,675,0,2449,383,0,184,275,13,3,448,100,14,19,0,0,17,Low
P1155_Exp7,19,F,2,7,25,6,2,10,1,4966.42966481159,1283,0,3159,399,0,359,200,11,3,597,99,38,0,0,0,17,Low
P1155_Exp7,19,F,2,7,26,8,4,12,3,6324.5001519681,2008,0,3723,234,0,541,275,13,2,759,99,41,0,0,0,17,Low
P1155_Exp7,19,F,2,7,27,5,1,9,3,5756.32823436172,866,200,3774,175,0,317,216,13,4,691,99,36,0,0,0,17,Low
P1155_Exp7,19,F,2,7,28,7,3,11,1,2003.3795722411,417,0,767,375,0,384,233,3,3,240,99,87,0,87,0,17,Low
P1155_Exp7,19,F,2,8,29,6,2,10,3,6277.66504976898,2042,266,3368,158,0,267,200,16,3,754,98,34,0,0,0,17,Low
P1155_Exp7,19,F,2,8,30,8,4,12,1,1319.5808971941,0,0,991,217,0,541,267,4,2,159,98,22,0,0,0,17,Low
P1155_Exp7,19,F,2,8,31,5,1,9,1,1484.3850529578,150,100,1026,300,0,200,200,5,4,178,99,16,15,0,0,17,Low
P1155_Exp7,19,F,2,8,32,7,3,11,1,1018.0727193947,225,0,658,317,0,134,250,4,4,122,99,0,18,0,0,17,Low
P1155_Exp7,19,F,2,9,33,8,4,12,1,1243.53078266722,400,0,508,516,0,250,233,5,3,149,100,11,0,0,0,17,Low
P1155_Exp7,19,F,2,9,34,6,2,10,1,1578.16655962961,484,0,700,542,0,175,400,6,4,189,100,9,0,0,0,17,Low
P1155_Exp7,19,F,2,9,35,7,3,11,1,1028.98560580797,358,0,417,291,0,200,316,4,2,123,100,12,29,0,29,17,Low
P1155_Exp7,19,F,2,9,36,5,1,9,1,3228.44003877253,1691,259,1134,233,0,116,275,8,4,387,100,18,15,0,0,17,Low
P1155_Exp7,19,F,2,10,37,7,3,11,1,798.323230090318,250,150,408,308,0,192,217,3,4,96,99,8,3,0,0,17,Low
P1155_Exp7,19,F,2,10,38,8,4,12,1,1504.04352170881,300,309,883,433,0,0,NA,7,2,181,98,13,0,0,0,17,Low
P1155_Exp7,19,F,2,10,39,6,2,10,1,1086.32517664228,167,241,350,450,0,0,NA,3,3,130,99,0,24,0,0,17,Low
P1155_Exp7,19,F,2,10,40,5,1,9,1,1266.06239794637,208,0,933,450,0,191,350,4,3,152,99,0,12,0,0,17,Low
P1155_Exp7,19,F,2,11,41,7,3,11,1,777.443218015833,116,333,466,442,0,0,NA,4,2,93,99,14,7,0,0,17,Low
P1155_Exp7,19,F,2,11,42,8,4,12,1,965.052298211958,0,383,659,225,0,0,NA,5,2,116,97,19,11,0,0,17,Low
P1155_Exp7,19,F,2,11,43,6,2,10,1,1016.83819081518,0,366,942,366,0,0,NA,3,3,122,99,0,1,0,0,17,Low
P1155_Exp7,19,F,2,11,44,5,1,9,1,1858.53069147561,283,0,1416,409,0,283,375,5,3,223,100,0,14,0,0,17,Low
P1155_Exp7,19,F,2,12,45,7,3,11,1,758.071043674136,233,0,442,433,0,283,458,3,2,91,98,0,9,0,0,17,Low
P1155_Exp7,19,F,2,12,46,6,2,10,1,1490.17339359852,317,0,774,767,0,0,NA,6,2,179,98,14,3,0,0,17,Low
P1155_Exp7,19,F,2,12,47,5,1,9,1,1008.11857904773,133,0,474,715,0,0,NA,4,3,121,100,12,2,0,0,17,Low
P1155_Exp7,19,F,2,12,48,8,4,12,1,913.915050943615,234,0,566,383,0,391,416,4,3,109,100,3,20,0,0,17,Low
P1155_Exp7,19,F,3,13,49,12,4,16,1,3065.24389283732,1492,0,917,483,0,292,225,10,3,368,99,17,0,0,0,17,Low
P1155_Exp7,19,F,3,13,50,11,3,15,1,3070.24909774191,0,0,500,208,0,575,242,3,2,368,99,232,0,232,0,17,Low
P1155_Exp7,19,F,3,13,51,9,1,13,2,3907.29565275251,826,0,2649,250,0,525,275,11,2,469,99,17,0,0,0,17,Low
P1155_Exp7,19,F,3,13,52,10,2,14,1,1599.21259770636,333,0,1083,225,0,533,259,6,3,192,99,0,11,0,0,17,Low
P1155_Exp7,19,F,3,14,53,9,1,13,2,2471.27178087248,616,0,1558,408,0,350,316,6,3,296,99,20,0,0,0,17,Low
P1155_Exp7,19,F,3,14,54,11,3,15,1,789.000112214126,183,117,341,600,0,0,NA,4,3,95,98,0,20,0,0,17,Low
P1155_Exp7,19,F,3,14,55,12,4,16,1,1464.27086292533,441,0,842,241,0,309,500,5,4,175,100,0,15,0,0,17,Low
P1155_Exp7,19,F,3,14,56,10,2,14,1,791.028597595869,125,0,592,258,0,500,309,3,3,95,100,0,12,0,0,17,Low
P1155_Exp7,19,F,3,15,57,12,4,16,1,1855.77255734825,717,0,875,267,0,458,358,4,2,222,99,13,0,0,0,17,Low
P1155_Exp7,19,F,3,15,58,10,2,14,1,1975.31406587223,682,0,1125,316,0,433,375,5,2,237,98,0,14,0,0,17,Low
P1155_Exp7,19,F,3,15,59,11,3,15,1,1121.55206184252,292,0,758,733,0,0,NA,3,1,134,99,6,7,0,0,17,Low
P1155_Exp7,19,F,3,15,60,9,1,13,1,1272.18742822879,233,0,783,292,0,350,459,4,3,153,98,19,1,0,0,17,Low
P1155_Exp7,19,F,3,16,61,12,4,16,1,1152.76526057278,242,350,785,325,0,0,NA,5,2,138,99,4,22,0,0,17,Low
P1155_Exp7,19,F,3,16,62,9,1,13,1,2043.35690365406,475,409,942,0,0,200,333,6,3,245,100,0,8,0,0,17,Low
P1155_Exp7,19,F,3,16,63,10,2,14,1,851.213798538083,192,266,566,383,0,0,NA,3,3,102,99,0,22,0,0,17,Low
P1155_Exp7,19,F,3,16,64,11,3,15,1,875.80945409718,183,0,591,417,0,367,458,3,2,105,100,0,6,0,0,17,Low
P1155_Exp7,19,F,3,17,65,9,1,13,1,1169.70609684358,208,0,817,342,0,258,308,4,3,140,98,3,24,0,0,17,Low
P1155_Exp7,19,F,3,17,66,11,3,15,1,645.463671680773,292,0,266,817,0,0,NA,4,1,77,100,0,0,0,0,17,Low
P1155_Exp7,19,F,3,17,67,10,2,14,1,862.255919346353,216,0,540,776,0,0,NA,4,2,104,99,1,0,0,0,17,Low
P1155_Exp7,19,F,3,17,68,12,4,16,1,1142.24502406432,216,0,792,800,0,0,NA,5,1,137,98,5,0,0,0,17,Low
P1155_Exp7,19,F,3,18,69,9,1,13,1,2032.42299344856,366,192,1124,0,0,567,250,5,2,244,99,17,0,0,0,17,Low
P1155_Exp7,19,F,3,18,70,12,4,16,1,1031.90049075056,208,0,600,458,0,291,200,4,3,124,99,13,0,0,0,17,Low
P1155_Exp7,19,F,3,18,71,11,3,15,1,1151.28648513928,391,0,641,466,0,258,225,4,3,138,99,0,3,0,0,17,Low
P1155_Exp7,19,F,3,18,72,10,2,14,1,2427.85242421087,409,0,1716,308,0,392,350,8,3,291,100,3,11,0,0,17,Low
P1156_Exp7,18,F,1,1,1,2,2,6,2,5076.1802625002,2650,0,1893,267,0,523,300,11,5,609,103,13,2,0,0,25,High
P1156_Exp7,18,F,1,1,2,4,4,8,4,10435.1458060737,958,0,6924,117,509,550,158,27,2,1252,100,65,14,0,0,25,High
P1156_Exp7,18,F,1,1,3,3,3,7,1,5353.72380722583,2041,0,2732,192,175,397,242,9,5,642,100,35,14,0,0,25,High
P1156_Exp7,18,F,1,1,4,1,1,5,2,4834.1826697233,1292,0,2233,233,417,275,284,13,3,580,100,69,7,0,0,25,High
P1156_Exp7,18,F,1,2,5,3,3,7,2,6095.69372900114,2083,0,3341,183,0,584,224,12,2,732,98,50,9,0,0,25,High
P1156_Exp7,18,F,1,2,6,1,1,5,1,2977.06273556469,583,0,1619,0,167,351,400,10,4,358,100,16,1,0,0,25,High
P1156_Exp7,18,F,1,2,7,4,4,8,2,5513.51410122879,1226,0,2923,200,691,575,242,14,2,662,100,18,11,0,0,25,High
P1156_Exp7,18,F,1,2,8,2,2,6,1,5738.09349427938,2334,0,1959,292,0,450,350,15,4,689,99,75,11,29,0,25,High
P1156_Exp7,18,F,1,3,9,1,1,5,1,6526.76681043522,483,0,4207,734,159,0,NA,20,3,783,98,112,0,74,0,25,High
P1156_Exp7,18,F,1,3,10,4,4,8,3,6358.36387860763,1608,0,3998,208,0,558,258,17,2,763,99,19,9,0,0,25,High
P1156_Exp7,18,F,1,3,11,3,3,7,1,2500.85191283324,1283,0,858,758,0,0,NA,5,2,300,99,0,1,0,0,25,High
P1156_Exp7,18,F,1,3,12,2,2,6,1,3776.15487938056,2391,0,1116,200,0,526,233,6,4,454,98,31,8,0,0,25,High
P1156_Exp7,18,F,1,4,13,4,4,8,1,3988.04982356523,1391,0,1800,0,0,0,NA,8,1,478,99,64,0,58,0,25,High
P1156_Exp7,18,F,1,4,14,3,3,7,3,7987.46765042779,2657,0,2874,325,0,434,383,15,2,959,99,42,2,0,0,25,High
P1156_Exp7,18,F,1,4,15,1,1,5,1,2295.03191285039,934,0,949,175,0,0,NA,7,2,275,100,1,0,0,0,25,High
P1156_Exp7,18,F,1,4,16,2,2,6,1,10211.9685134858,2949,0,4934,0,0,434,317,18,3,1226,98,131,10,108,0,25,High
P1156_Exp7,18,F,1,5,17,4,4,8,1,1930.69510327769,742,0,1107,333,0,0,NA,3,2,232,99,15,0,0,0,25,High
P1156_Exp7,18,F,1,5,18,1,1,5,1,1854.19421425104,467,0,1225,767,0,0,NA,5,2,223,99,1,0,0,0,25,High
P1156_Exp7,18,F,1,5,19,3,3,7,2,3379.98219625479,458,0,2508,341,0,0,NA,6,2,406,99,32,3,0,0,25,High
P1156_Exp7,18,F,1,5,20,2,2,6,1,4629.17146683139,1974,0,1750,0,0,0,NA,11,1,555,100,50,0,26,0,25,High
P1156_Exp7,18,F,1,6,21,3,3,7,1,3223.77058204074,1292,250,1226,500,150,0,NA,8,2,387,98,36,0,0,0,25,High
P1156_Exp7,18,F,1,6,22,4,4,8,1,2279.39795165912,1309,216,617,525,0,0,NA,4,2,273,100,29,1,26,0,25,High
P1156_Exp7,18,F,1,6,23,2,2,6,1,4092.46008650553,1467,0,1366,0,0,0,NA,9,2,491,98,104,0,79,0,25,High
P1156_Exp7,18,F,1,6,24,1,1,5,1,1079.91723896521,383,0,525,759,0,0,NA,4,1,129,100,0,1,0,0,25,High
P1156_Exp7,18,F,2,7,25,5,1,9,2,4558.09996836615,1107,0,2825,200,0,150,525,17,2,547,98,10,6,0,0,25,High
P1156_Exp7,18,F,2,7,26,6,2,10,1,4334.33246413733,1625,0,1557,183,401,292,266,10,4,520,99,44,11,27,0,25,High
P1156_Exp7,18,F,2,7,27,7,3,11,2,4424.44408493975,1258,0,2086,183,0,575,233,13,2,531,98,4,14,0,0,25,High
P1156_Exp7,18,F,2,7,28,8,4,12,1,2686.94357093773,1209,0,1310,317,0,458,359,5,2,322,99,2,0,0,0,25,High
P1156_Exp7,18,F,2,8,29,5,1,9,1,2007.27886464119,342,291,1458,374,0,0,NA,6,2,241,98,6,1,0,0,25,High
P1156_Exp7,18,F,2,8,30,8,4,12,3,8136.57664264611,1557,191,5518,0,0,233,592,17,4,976,100,39,3,0,0,25,High
P1156_Exp7,18,F,2,8,31,7,3,11,1,1214.11388023807,309,0,708,575,0,0,NA,5,2,146,99,2,2,0,0,25,High
P1156_Exp7,18,F,2,8,32,6,2,10,1,1335.64089903848,533,175,631,0,0,75,250,5,4,160,99,5,2,0,0,25,High
P1156_Exp7,18,F,2,9,33,5,1,9,1,1486.25987924424,425,0,950,775,0,0,NA,4,2,179,98,5,1,0,0,25,High
P1156_Exp7,18,F,2,9,34,7,3,11,2,3588.19304650933,441,450,2159,317,0,0,NA,11,2,430,99,25,0,0,0,25,High
P1156_Exp7,18,F,2,9,35,8,4,12,1,1988.11878310698,341,133,1200,450,0,0,NA,7,4,239,98,1,2,0,0,25,High
P1156_Exp7,18,F,2,9,36,6,2,10,1,2596.56020081457,1175,0,917,775,0,0,NA,6,1,312,99,29,0,0,0,25,High
P1156_Exp7,18,F,2,10,37,8,4,12,1,3949.74204134087,1200,0,2417,758,0,0,NA,8,2,474,99,21,0,0,0,25,High
P1156_Exp7,18,F,2,10,38,5,1,9,1,2030.56053410182,350,66,1317,650,0,0,NA,4,3,243,100,32,1,0,0,25,High
P1156_Exp7,18,F,2,10,39,6,2,10,1,3277.95258087099,1476,134,1100,250,217,350,8,12,3,393,100,21,0,0,0,25,High
P1156_Exp7,18,F,2,10,40,7,3,11,1,3178.14065092716,342,0,2467,574,0,184,433,8,3,381,100,9,16,0,0,25,High
P1156_Exp7,18,F,2,11,41,5,1,9,1,1123.08215999474,467,208,532,507,0,0,NA,4,3,135,98,0,0,0,0,25,High
P1156_Exp7,18,F,2,11,42,6,2,10,1,2471.98751682299,849,0,1257,542,0,0,NA,9,3,297,98,12,0,0,0,25,High
P1156_Exp7,18,F,2,11,43,7,3,11,1,1149.6973348967,233,0,783,793,0,0,NA,4,2,138,99,0,0,0,0,25,High
P1156_Exp7,18,F,2,11,44,8,4,12,1,937.316370442204,450,0,400,392,0,325,266,2,4,113,98,5,2,0,0,25,High
P1156_Exp7,18,F,2,12,45,7,3,11,1,1749.05307978224,891,150,684,342,0,0,NA,4,3,210,99,6,0,0,0,25,High
P1156_Exp7,18,F,2,12,46,8,4,12,1,2392.78878245386,826,0,1192,517,0,0,NA,8,2,287,100,19,0,0,0,25,High
P1156_Exp7,18,F,2,12,47,5,1,9,1,969.195219069661,292,0,566,700,0,0,NA,3,3,116,99,1,0,0,0,25,High
P1156_Exp7,18,F,2,12,48,6,2,10,1,955.355389955002,175,0,392,550,0,0,NA,3,2,115,98,7,1,0,0,25,High
P1156_Exp7,18,F,3,13,49,10,2,14,1,4555.5428107491,2817,0,841,0,258,783,8,8,2,547,99,49,8,35,0,25,High
P1156_Exp7,18,F,3,13,50,12,4,16,1,1876.10347779628,1167,0,592,200,0,425,225,4,3,225,97,11,9,0,0,25,High
P1156_Exp7,18,F,3,13,51,9,1,13,1,3186.6623918304,1192,0,1025,441,0,0,NA,9,4,382,99,26,7,0,0,25,High
P1156_Exp7,18,F,3,13,52,11,3,15,1,1459.02172034585,291,0,892,225,0,317,258,5,3,175,100,4,6,0,0,25,High
P1156_Exp7,18,F,3,14,53,12,4,16,1,1206.1978096317,525,0,593,733,0,0,NA,3,1,145,98,0,0,0,0,25,High
P1156_Exp7,18,F,3,14,54,10,2,14,1,1199.782774911,507,0,391,600,0,0,NA,4,2,144,99,5,16,0,0,25,High
P1156_Exp7,18,F,3,14,55,9,1,13,1,1105.30995695444,423,0,483,616,0,0,NA,6,3,132,99,0,2,0,0,25,High
P1156_Exp7,18,F,3,14,56,11,3,15,1,423.085591817653,0,0,125,300,0,400,333,2,3,51,98,0,16,0,0,25,High
P1156_Exp7,18,F,3,15,57,12,4,16,1,860.54248147957,334,0,434,774,0,0,NA,4,2,103,100,1,0,0,0,25,High
P1156_Exp7,18,F,3,15,58,10,2,14,1,1962.66115266553,258,0,1582,808,0,0,NA,5,1,236,99,0,0,0,0,25,High
P1156_Exp7,18,F,3,15,59,9,1,13,1,950.062653948407,208,0,608,733,0,0,NA,3,2,114,98,0,0,0,0,25,High
P1156_Exp7,18,F,3,15,60,11,3,15,1,266.480090946061,0,0,250,666,0,0,NA,1,2,32,99,0,0,0,0,25,High
P1156_Exp7,18,F,3,16,61,12,4,16,1,1001.01223305501,334,0,476,283,0,225,324,3,3,120,99,12,2,0,0,25,High
P1156_Exp7,18,F,3,16,62,9,1,13,1,2690.6635567957,959,0,1482,783,0,0,NA,8,1,323,98,1,0,0,0,25,High
P1156_Exp7,18,F,3,16,63,10,2,14,1,969.245305128425,426,134,400,358,0,0,NA,3,3,117,98,0,0,0,0,25,High
P1156_Exp7,18,F,3,16,64,11,3,15,1,731.087025145825,0,0,708,367,0,350,425,1,2,87,100,0,18,0,0,25,High
P1156_Exp7,18,F,3,17,65,10,2,14,1,2023.4609899162,233,0,1351,768,0,0,NA,6,2,243,98,4,0,0,0,25,High
P1156_Exp7,18,F,3,17,66,9,1,13,1,1095.57316537393,259,0,618,784,0,0,NA,4,2,131,100,0,3,0,0,25,High
P1156_Exp7,18,F,3,17,67,12,4,16,1,1869.23086673778,384,0,1083,742,0,0,NA,7,1,224,99,22,0,0,0,25,High
P1156_Exp7,18,F,3,17,68,11,3,15,1,539.540624276924,234,0,250,516,0,234,416,2,3,64,99,0,11,0,0,25,High
P1156_Exp7,18,F,3,18,69,9,1,13,1,1167.31031374002,300,0,476,717,0,0,NA,5,3,140,99,0,0,0,0,25,High
P1156_Exp7,18,F,3,18,70,11,3,15,2,2850.25907168165,350,0,1890,766,0,0,NA,9,2,342,99,3,0,0,0,25,High
P1156_Exp7,18,F,3,18,71,10,2,14,1,872.902916831663,500,0,317,534,0,0,NA,2,3,105,98,4,22,0,0,25,High
P1156_Exp7,18,F,3,18,72,12,4,16,1,472.136847478396,175,0,192,775,0,0,NA,2,2,56,99,0,2,0,0,25,High
P1173_Exp7,18,F,1,1,1,4,4,8,2,7553.17454403905,1300,0,4865,192,150,451,225,27,5,906,100,6,0,0,0,18,Low
P1173_Exp7,18,F,1,1,2,3,3,7,3,8636.92492625444,3109,0,4525,399,0,307,225,18,4,1037,99,10,0,0,0,18,Low
P1173_Exp7,18,F,1,1,3,1,1,5,4,10325.6981981077,1783,0,6139,226,841,517,225,27,3,1240,99,41,0,0,0,18,Low
P1173_Exp7,18,F,1,1,4,2,2,6,1,3336.87109920038,608,0,2359,334,0,434,375,10,3,400,100,2,0,0,0,18,Low
P1173_Exp7,18,F,1,2,5,3,3,7,4,9544.13122794631,2316,0,5807,351,0,367,225,25,4,1146,99,36,0,0,0,18,Low
P1173_Exp7,18,F,1,2,6,2,2,6,2,4291.50889815935,434,0,3217,308,0,358,225,11,3,515,98,31,0,28,0,18,Low
P1173_Exp7,18,F,1,2,7,4,4,8,1,2087.54053647112,658,0,1206,467,0,151,217,7,5,250,99,0,0,0,0,18,Low
P1173_Exp7,18,F,1,2,8,1,1,5,2,3133.78604534398,175,184,2466,266,0,250,225,7,5,376,100,0,0,0,0,18,Low
P1173_Exp7,18,F,1,3,9,3,3,7,3,7243.36259245433,316,224,5501,200,0,242,275,27,5,870,98,41,0,0,0,18,Low
P1173_Exp7,18,F,1,3,10,2,2,6,3,9421.53416070141,742,200,6598,358,0,142,291,31,4,1130,100,111,0,70,0,18,Low
P1173_Exp7,18,F,1,3,11,1,1,5,4,7126.36898028188,250,0,5109,316,208,92,266,22,3,855,99,33,36,0,36,18,Low
P1173_Exp7,18,F,1,3,12,4,4,8,4,11556.3883994505,1433,0,7803,109,159,117,325,31,5,1387,100,41,3,0,0,18,Low
P1173_Exp7,18,F,1,4,13,1,1,5,1,1712.34834668076,233,0,1284,550,0,0,NA,6,3,205,100,0,0,0,0,18,Low
P1173_Exp7,18,F,1,4,14,3,3,7,1,5932.6592945348,593,133,3933,342,292,209,233,22,4,712,98,35,0,0,0,18,Low
P1173_Exp7,18,F,1,4,15,4,4,8,1,2532.98306070951,450,66,1576,259,0,58,342,11,4,304,99,0,0,0,0,18,Low
P1173_Exp7,18,F,1,4,16,2,2,6,1,2086.86221047083,500,0,1116,350,0,158,266,7,4,250,99,31,0,0,0,18,Low
P1173_Exp7,18,F,1,5,17,4,4,8,4,10758.3137446347,4765,417,4542,325,0,0,NA,24,2,1291,99,52,0,29,0,18,Low
P1173_Exp7,18,F,1,5,18,2,2,6,1,4209.67291639681,3199,192,575,517,0,0,NA,6,2,505,99,14,0,0,0,18,Low
P1173_Exp7,18,F,1,5,19,1,1,5,2,6470.99445250524,1709,225,3525,275,150,158,217,21,4,777,99,7,0,0,0,18,Low
P1173_Exp7,18,F,1,5,20,3,3,7,2,3656.79517862952,1151,191,2223,333,0,159,225,9,4,439,98,0,0,0,0,18,Low
P1173_Exp7,18,F,1,6,21,2,2,6,1,2062.98290921461,1085,183,741,583,0,0,NA,4,2,248,99,0,0,0,0,18,Low
P1173_Exp7,18,F,1,6,22,1,1,5,1,4078.63944005021,1899,533,1232,225,0,0,NA,12,2,489,100,16,0,0,0,18,Low
P1173_Exp7,18,F,1,6,23,4,4,8,1,6250.02280152353,3551,0,1899,342,0,67,233,12,4,750,99,40,1,0,0,18,Low
P1173_Exp7,18,F,1,6,24,3,3,7,2,4692.64288362137,1026,150,2868,567,0,0,NA,12,3,563,98,24,0,0,0,18,Low
P1173_Exp7,18,F,2,7,25,7,3,11,3,7732.35185270494,3456,0,3007,350,0,408,242,12,3,928,100,26,0,0,0,18,Low
P1173_Exp7,18,F,2,7,26,5,1,9,1,1161.54454273749,483,0,459,250,0,475,291,4,2,140,99,10,1,0,0,18,Low
P1173_Exp7,18,F,2,7,27,6,2,10,3,7020.33370300148,1657,0,4524,200,0,575,242,18,2,842,99,22,0,0,0,18,Low
P1173_Exp7,18,F,2,7,28,8,4,12,1,1807.60955629626,366,0,1184,200,0,309,233,7,3,217,98,2,3,0,0,18,Low
P1173_Exp7,18,F,2,8,29,5,1,9,1,3474.53077556406,1708,242,1233,242,0,217,283,8,3,417,99,8,1,0,0,18,Low
P1173_Exp7,18,F,2,8,30,7,3,11,3,6623.45517746087,1324,166,4177,276,0,241,192,25,4,795,99,34,0,0,0,18,Low
P1173_Exp7,18,F,2,8,31,6,2,10,3,7666.98429060057,1233,0,5282,359,0,359,233,20,3,920,100,37,0,0,0,18,Low
P1173_Exp7,18,F,2,8,32,8,4,12,1,1541.21788888506,326,200,651,157,0,0,NA,8,6,185,98,17,0,0,0,18,Low
P1173_Exp7,18,F,2,9,33,6,2,10,1,3873.00339812259,1599,142,2009,282,0,242,225,9,4,465,98,0,0,0,0,18,Low
P1173_Exp7,18,F,2,9,34,8,4,12,1,1164.30422271844,433,400,542,132,0,0,NA,5,5,140,99,0,0,0,0,18,Low
P1173_Exp7,18,F,2,9,35,7,3,11,1,3711.20502418819,1217,142,2126,349,0,208,234,10,4,446,100,0,0,0,0,18,Low
P1173_Exp7,18,F,2,9,36,5,1,9,1,1138.63635450184,225,0,783,183,0,409,225,3,4,137,98,0,0,0,0,18,Low
P1173_Exp7,18,F,2,10,37,6,2,10,1,1466.33088396015,616,0,716,233,0,542,275,4,2,176,99,0,0,0,0,18,Low
P1173_Exp7,18,F,2,10,38,8,4,12,1,921.958191744807,292,309,417,400,0,0,NA,5,3,111,98,0,0,0,0,18,Low
P1173_Exp7,18,F,2,10,39,7,3,11,1,2359.12847785085,733,0,1375,192,0,250,233,7,4,283,100,0,2,0,0,18,Low
P1173_Exp7,18,F,2,10,40,5,1,9,1,599.871754956666,175,0,317,475,0,224,234,3,3,72,99,0,0,0,0,18,Low
P1173_Exp7,18,F,2,11,41,7,3,11,2,5761.63859322492,2150,334,2391,200,0,183,242,20,3,691,98,32,0,31,0,18,Low
P1173_Exp7,18,F,2,11,42,6,2,10,1,2153.73173597959,1067,475,700,283,0,0,NA,8,2,258,99,0,0,0,0,18,Low
P1173_Exp7,18,F,2,11,43,5,1,9,1,1101.19486166491,434,166,508,292,0,175,342,3,4,133,98,0,0,0,0,18,Low
P1173_Exp7,18,F,2,11,44,8,4,12,1,777.684682292147,258,0,425,250,0,343,292,3,6,93,100,1,1,0,0,18,Low
P1173_Exp7,18,F,2,12,45,6,2,10,1,3823.33812448746,1667,208,1532,291,0,0,NA,12,3,459,99,32,0,0,0,18,Low
P1173_Exp7,18,F,2,12,46,7,3,11,1,1134.33420942692,684,391,392,367,0,0,NA,2,2,136,98,0,0,0,0,18,Low
P1173_Exp7,18,F,2,12,47,8,4,12,1,828.394652169436,325,0,316,592,0,0,NA,4,4,99,100,1,0,0,0,18,Low
P1173_Exp7,18,F,2,12,48,5,1,9,1,869.12049190687,300,0,483,258,0,500,308,3,2,104,99,0,17,0,0,18,Low
P1173_Exp7,18,F,3,13,49,11,3,15,1,2681.3027198275,691,0,1551,192,0,583,233,6,2,322,99,0,0,0,0,18,Low
P1173_Exp7,18,F,3,13,50,9,1,13,1,1565.129344154,184,0,1059,225,133,517,258,5,3,188,99,1,0,0,0,18,Low
P1173_Exp7,18,F,3,13,51,10,2,14,1,1168.39736671,450,0,634,708,0,0,NA,3,3,140,99,0,1,0,0,18,Low
P1173_Exp7,18,F,3,13,52,12,4,16,1,1172.03200684617,500,0,491,174,0,243,217,5,6,140,99,0,1,0,0,18,Low
P1173_Exp7,18,F,3,14,53,10,2,14,1,1105.62964204246,359,0,617,492,0,217,325,5,3,132,99,0,0,0,0,18,Low
P1173_Exp7,18,F,3,14,54,12,4,16,1,872.340221608965,450,92,342,192,0,117,250,3,5,105,98,1,0,0,0,18,Low
P1173_Exp7,18,F,3,14,55,9,1,13,1,1127.53858249653,350,0,641,183,0,584,225,4,3,135,99,1,1,0,0,18,Low
P1173_Exp7,18,F,3,14,56,11,3,15,1,1267.88219140713,442,0,499,150,0,625,192,5,2,152,99,0,0,0,0,18,Low
P1173_Exp7,18,F,3,15,57,12,4,16,1,1202.05828966004,609,0,433,0,0,351,16,4,3,144,99,1,4,0,0,18,Low
P1173_Exp7,18,F,3,15,58,9,1,13,1,2050.57238780341,725,0,993,199,0,516,134,7,5,246,99,3,0,0,0,18,Low
P1173_Exp7,18,F,3,15,59,10,2,14,1,1650.25740214742,848,0,617,183,0,526,33,6,3,198,97,0,0,0,0,18,Low
P1173_Exp7,18,F,3,15,60,11,3,15,1,1338.13314420195,717,0,491,0,0,617,191,4,2,161,98,0,0,0,0,18,Low
P1173_Exp7,18,F,3,16,61,10,2,14,1,1727.87316973336,425,175,1225,167,0,383,83,3,4,207,100,0,0,0,0,18,Low
P1173_Exp7,18,F,3,16,62,9,1,13,1,1171.75467848597,283,0,759,158,0,442,17,3,5,141,98,1,0,0,0,18,Low
P1173_Exp7,18,F,3,16,63,12,4,16,1,1206.60529990869,275,0,708,0,0,666,9,6,4,145,98,0,0,0,0,18,Low
P1173_Exp7,18,F,3,16,64,11,3,15,1,1319.2516277195,384,0,817,208,0,516,150,5,3,158,99,0,1,0,0,18,Low
P1173_Exp7,18,F,3,17,65,10,2,14,1,1042.75401592804,450,66,441,0,0,675,134,5,3,125,100,0,0,0,0,18,Low
P1173_Exp7,18,F,3,17,66,9,1,13,1,930.525690283275,342,0,408,0,67,760,33,4,3,112,99,3,0,0,0,18,Low
P1173_Exp7,18,F,3,17,67,12,4,16,1,752.06442674812,300,0,191,158,0,350,192,4,5,90,99,0,4,0,0,18,Low
P1173_Exp7,18,F,3,17,68,11,3,15,1,954.921929129569,325,0,475,0,0,800,8,2,1,115,98,0,0,0,0,18,Low
P1173_Exp7,18,F,3,18,69,9,1,13,1,1275.62821675406,333,200,833,241,0,167,75,3,5,153,100,1,0,0,0,18,Low
P1173_Exp7,18,F,3,18,70,10,2,14,1,873.827344699976,343,0,459,425,0,242,166,3,3,105,98,0,0,0,0,18,Low
P1173_Exp7,18,F,3,18,71,12,4,16,1,1463.94684941697,367,0,659,0,0,325,492,6,2,176,99,0,1,0,0,18,Low
P1173_Exp7,18,F,3,18,72,11,3,15,1,1392.38902150692,417,0,791,391,0,334,225,5,3,167,100,0,0,0,0,18,Low
P1277_Exp7,22,M,1,1,1,3,3,7,2,4010.78458529082,275,0,2731,125,0,259,350,21,7,481,100,66,1,0,0,34,High
P1277_Exp7,22,M,1,1,2,2,2,6,1,1398.7221683783,233,0,942,100,0,158,391,8,5,167,100,28,12,0,0,34,High
P1277_Exp7,22,M,1,1,3,4,4,8,2,2905.10332889971,250,0,2151,117,0,201,267,8,8,349,98,42,6,0,0,34,High
P1277_Exp7,22,M,1,1,4,1,1,5,3,3084.90492068813,325,0,2330,100,0,157,267,10,9,370,99,60,3,0,0,34,High
P1277_Exp7,22,M,1,2,5,2,2,6,2,2849.84002698911,433,0,1668,75,0,74,425,13,5,342,100,57,42,0,0,34,High
P1277_Exp7,22,M,1,2,6,4,4,8,2,4831.65637066122,617,0,2459,0,0,25,383,23,1,580,100,124,9,44,0,34,High
P1277_Exp7,22,M,1,2,7,1,1,5,1,2493.41266066767,592,0,1399,84,0,0,NA,12,2,299,100,26,40,0,0,34,High
P1277_Exp7,22,M,1,2,8,3,3,7,4,3545.69121374516,67,0,1891,174,0,0,NA,24,4,426,100,54,31,0,0,34,High
P1277_Exp7,22,M,1,3,9,2,2,6,1,2797.69410882727,467,0,483,150,25,0,NA,9,1,335,100,139,40,65,30,34,High
P1277_Exp7,22,M,1,3,10,3,3,7,4,6293.78601707867,225,42,3681,243,0,0,NA,35,5,756,98,163,52,26,29,34,High
P1277_Exp7,22,M,1,3,11,4,4,8,3,4981.97622477892,608,0,2476,68,0,0,NA,33,4,598,100,154,71,0,57,34,High
P1277_Exp7,22,M,1,3,12,1,1,5,1,1493.44574211864,0,0,1050,124,0,25,392,8,3,179,100,55,50,27,48,34,High
P1277_Exp7,22,M,1,4,13,4,4,8,2,2419.9227274803,0,0,1808,117,0,0,NA,11,2,291,99,58,48,0,26,34,High
P1277_Exp7,22,M,1,4,14,2,2,6,1,1082.62477541575,341,190,575,83,0,0,NA,4,6,130,99,3,35,0,31,34,High
P1277_Exp7,22,M,1,4,15,3,3,7,1,1809.90393907996,309,NA,1015,NA,0,NA,NA,14,NA,218,100,16,84,0,75,34,High
P1277_Exp7,22,M,1,4,16,1,1,5,1,1410.26233154116,25,0,1224,117,0,0,NA,3,1,169,100,41,76,0,69,34,High
P1277_Exp7,22,M,1,5,17,3,3,7,2,2766.94352828781,291,0,1623,108,0,0,NA,26,2,332,99,59,79,29,77,34,High
P1277_Exp7,22,M,1,5,18,4,4,8,4,3384.28722546087,325,66,2015,58,0,0,NA,16,4,406,99,118,70,29,54,34,High
P1277_Exp7,22,M,1,5,19,2,2,6,1,920.451257406967,75,0,223,50,0,0,NA,7,2,110,99,1,52,0,0,34,High
P1277_Exp7,22,M,1,5,20,1,1,5,1,1750.28780114371,817,0,685,151,0,0,NA,7,2,210,99,27,75,0,75,34,High
P1277_Exp7,22,M,1,6,21,2,2,6,1,918.602098245174,292,0,459,175,0,0,NA,4,1,110,99,7,75,0,74,34,High
P1277_Exp7,22,M,1,6,22,4,4,8,3,3747.78319679899,283,0,1971,166,0,0,NA,20,3,449,100,173,72,118,64,34,High
P1277_Exp7,22,M,1,6,23,3,3,7,1,3428.91438386869,416,0,1624,0,0,0,NA,22,1,412,100,73,86,27,70,34,High
P1277_Exp7,22,M,1,6,24,1,1,5,1,1075.59759946889,0,0,658,116,0,0,NA,4,2,129,100,52,76,38,76,34,High
P1277_Exp7,22,M,2,7,25,5,1,9,2,2312.50886982889,617,50,1125,124,0,67,342,10,7,278,100,50,1,27,0,34,High
P1277_Exp7,22,M,2,7,26,8,4,12,3,2564.21588707599,958,0,1058,142,0,0,NA,12,3,308,99,57,72,0,35,34,High
P1277_Exp7,22,M,2,7,27,7,3,11,1,1190.59545226628,375,0,582,193,0,50,308,4,5,143,98,31,9,0,0,34,High
P1277_Exp7,22,M,2,7,28,6,2,10,2,1768.80165346665,224,0,1325,192,0,25,308,5,2,212,99,9,43,0,37,34,High
P1277_Exp7,22,M,2,8,29,7,3,11,1,1124.04458093806,391,75,475,0,0,0,NA,4,1,135,98,19,77,0,39,34,High
P1277_Exp7,22,M,2,8,30,6,2,10,1,680.397919379175,309,0,51,16,0,0,NA,7,1,82,98,9,55,0,46,34,High
P1277_Exp7,22,M,2,8,31,5,1,9,1,879.820150323212,183,0,182,150,0,0,NA,8,2,106,99,12,70,0,70,34,High
P1277_Exp7,22,M,2,8,32,8,4,12,1,430.408922460629,133,0,0,16,0,0,NA,2,1,52,99,30,58,0,45,34,High
P1277_Exp7,22,M,2,9,33,6,2,10,1,716.435913811438,58,0,400,83,0,0,NA,7,2,86,99,0,70,0,70,34,High
P1277_Exp7,22,M,2,9,34,7,3,11,1,585.841867199633,200,0,283,150,0,0,NA,3,2,70,99,3,75,0,75,34,High
P1277_Exp7,22,M,2,9,35,8,4,12,1,1091.68568634777,0,133,439,0,0,0,NA,4,4,131,100,101,43,38,0,34,High
P1277_Exp7,22,M,2,9,36,5,1,9,2,1946.34566956665,142,216,1492,108,0,0,NA,10,7,233,100,28,25,0,0,34,High
P1277_Exp7,22,M,2,10,37,7,3,11,1,1486.73052099184,217,0,908,192,0,175,583,4,3,179,99,59,53,30,40,34,High
P1277_Exp7,22,M,2,10,38,6,2,10,1,644.613037380623,159,0,416,183,0,0,NA,3,1,77,100,0,74,0,74,34,High
P1277_Exp7,22,M,2,10,39,5,1,9,1,1589.50122987153,216,100,1167,166,0,0,NA,5,4,191,99,23,40,0,0,34,High
P1277_Exp7,22,M,2,10,40,8,4,12,1,256.417913828045,217,0,0,142,0,0,NA,1,4,31,98,2,58,0,33,34,High
P1277_Exp7,22,M,2,11,41,5,1,9,3,1665.21658486454,0,42,1558,108,0,0,NA,3,2,200,99,5,21,0,0,34,High
P1277_Exp7,22,M,2,11,42,8,4,12,1,1031.6929766268,192,0,592,100,0,0,NA,4,3,124,99,12,75,0,48,34,High
P1277_Exp7,22,M,2,11,43,7,3,11,1,512.151899543824,0,0,441,224,0,0,NA,2,3,61,99,23,56,0,55,34,High
P1277_Exp7,22,M,2,11,44,6,2,10,1,389.734840398887,233,0,92,200,0,0,NA,2,2,47,100,1,72,0,72,34,High
P1277_Exp7,22,M,2,12,45,7,3,11,1,351.777764008148,0,168,317,234,0,0,NA,2,6,43,98,0,6,0,0,34,High
P1277_Exp7,22,M,2,12,46,8,4,12,3,1500.21568674129,0,92,1308,116,0,0,NA,4,5,180,99,15,56,0,29,34,High
P1277_Exp7,22,M,2,12,47,6,2,10,1,689.523706707405,225,0,317,383,0,0,NA,5,5,83,98,4,2,0,0,34,High
P1277_Exp7,22,M,2,12,48,5,1,9,1,559.291082405252,0,0,216,183,0,0,NA,8,7,68,99,0,3,0,0,34,High
P1277_Exp7,22,M,3,13,49,9,1,13,1,915.796669287374,0,0,0,0,0,0,NA,1,2,110,99,1,22,0,0,34,High
P1277_Exp7,22,M,3,13,50,11,3,15,2,2384.96122098877,1583,116,758,0,0,0,NA,2,5,287,98,3,0,0,0,34,High
P1277_Exp7,22,M,3,13,51,12,4,16,1,1026.02028430556,416,41,0,0,0,0,NA,5,3,123,100,43,0,42,0,34,High
P1277_Exp7,22,M,3,13,52,10,2,14,1,243.172356538707,67,0,0,384,0,0,NA,1,6,29,100,2,5,0,0,34,High
P1277_Exp7,22,M,3,14,53,12,4,16,1,727.285386208678,450,126,100,17,0,0,NA,3,3,87,100,30,41,0,30,34,High
P1277_Exp7,22,M,3,14,54,10,2,14,1,474.436286691343,295,NA,125,NA,0,NA,NA,4,NA,57,101,21,88,0,85,34,High
P1277_Exp7,22,M,3,14,55,9,1,13,2,922.979358874727,242,0,558,58,0,0,NA,3,1,111,98,16,82,0,76,34,High
P1277_Exp7,22,M,3,14,56,11,3,15,1,240.164419781649,0,0,175,25,0,0,NA,2,1,29,100,0,73,0,61,34,High
P1277_Exp7,22,M,3,15,57,10,2,14,1,701.936972298427,417,0,217,75,0,0,NA,2,2,84,99,14,74,0,73,34,High
P1277_Exp7,22,M,3,15,58,11,3,15,2,1499.95567288715,117,NA,733,NA,0,NA,NA,12,NA,180,99,44,91,0,83,34,High
P1277_Exp7,22,M,3,15,59,12,4,16,1,1033.28274030355,67,NA,83,NA,0,NA,NA,2,NA,124,100,106,93,101,92,34,High
P1277_Exp7,22,M,3,15,60,9,1,13,1,568.726400961168,83,NA,0,NA,0,NA,NA,1,NA,69,100,57,98,52,97,34,High
P1277_Exp7,22,M,3,16,61,11,3,15,3,1962.35986426473,467,NA,791,NA,0,NA,NA,10,NA,236,100,83,97,48,69,34,High
P1277_Exp7,22,M,3,16,62,9,1,13,2,1757.49615201494,233,0,816,50,0,0,NA,9,1,211,100,91,68,0,51,34,High
P1277_Exp7,22,M,3,16,63,12,4,16,1,1031.88806431717,375,NA,25,NA,0,NA,NA,9,NA,124,100,73,95,0,82,34,High
P1277_Exp7,22,M,3,16,64,10,2,14,1,328.220694093034,33,58,166,0,0,0,NA,4,1,40,99,7,77,0,77,34,High
P1277_Exp7,22,M,3,17,65,9,1,13,1,1212.21493976191,342,0,491,50,0,0,NA,4,2,146,100,60,92,0,71,34,High
P1277_Exp7,22,M,3,17,66,11,3,15,1,829.090550192632,358,0,300,16,0,0,NA,4,1,100,100,10,98,0,96,34,High
P1277_Exp7,22,M,3,17,67,10,2,14,1,1325.73092999519,134,0,634,0,0,0,NA,6,2,159,96,45,90,0,77,34,High
P1277_Exp7,22,M,3,17,68,12,4,16,1,241.875997337047,0,117,225,0,0,175,650,1,3,29,100,0,52,0,52,34,High
P1277_Exp7,22,M,3,18,69,11,3,15,1,1149.25634072279,167,NA,359,NA,0,NA,NA,5,NA,137,100,54,96,0,84,34,High
P1277_Exp7,22,M,3,18,70,10,2,14,3,2737.92183891055,1079,NA,791,NA,0,NA,NA,11,NA,330,98,186,97,46,97,34,High
P1277_Exp7,22,M,3,18,71,12,4,16,1,1002.60759779485,109,25,0,75,0,99,408,3,7,121,98,74,34,59,1,34,High
P1277_Exp7,22,M,3,18,72,9,1,13,1,1677.38684106735,566,0,866,51,0,0,NA,5,2,201,100,48,73,0,73,34,High
P1286_Exp7,19,F,1,1,1,1,1,5,4,8093.67636824391,709,0,5515,200,0,549,242,29,3,971,98,120,15,0,0,31,High
P1286_Exp7,19,F,1,1,2,2,2,6,1,3729.71531553048,425,0,2322,408,0,225,242,14,3,448,99,42,17,0,0,31,High
P1286_Exp7,19,F,1,1,3,4,4,8,3,4228.41199187678,250,0,3102,517,0,249,250,12,3,507,100,58,3,0,0,31,High
P1286_Exp7,19,F,1,1,4,3,3,7,4,5065.63581819501,367,0,3581,474,207,250,300,17,3,607,100,64,0,0,0,31,High
P1286_Exp7,19,F,1,2,5,4,4,8,1,1878.59411091267,575,0,900,434,0,142,225,6,3,226,99,33,21,0,0,31,High
P1286_Exp7,19,F,1,2,6,3,3,7,3,4557.24158528756,441,0,3350,191,0,559,225,12,3,547,98,81,0,0,0,31,High
P1286_Exp7,19,F,1,2,7,2,2,6,2,4348.37558352592,316,166,3283,133,0,159,316,12,4,521,100,79,13,0,0,31,High
P1286_Exp7,19,F,1,2,8,1,1,5,1,3148.94866874238,334,275,2036,209,0,183,250,11,3,378,100,93,6,0,0,31,High
P1286_Exp7,19,F,1,3,9,3,3,7,1,2209.93110672134,325,58,424,175,0,0,NA,6,2,266,100,188,72,115,30,31,High
P1286_Exp7,19,F,1,3,10,2,2,6,3,4497.86963548104,291,350,3413,209,0,133,250,16,3,540,100,97,13,0,0,31,High
P1286_Exp7,19,F,1,3,11,4,4,8,1,1972.84276051869,92,259,1579,200,0,192,233,6,3,237,98,49,0,0,0,31,High
P1286_Exp7,19,F,1,3,12,1,1,5,1,2287.65594357901,191,350,1375,183,0,108,234,9,3,275,98,65,0,0,0,31,High
P1286_Exp7,19,F,1,4,13,3,3,7,1,1988.16605001775,333,180,1208,484,0,0,NA,8,4,239,99,56,10,0,0,31,High
P1286_Exp7,19,F,1,4,14,4,4,8,3,5462.6135789913,275,258,3842,208,0,158,258,14,3,656,100,123,14,0,0,31,High
P1286_Exp7,19,F,1,4,15,1,1,5,1,2328.26967901201,275,442,1520,192,0,0,NA,10,2,280,100,39,14,0,0,31,High
P1286_Exp7,19,F,1,4,16,2,2,6,1,1411.42979752476,133,330,875,217,0,0,NA,7,3,170,100,26,19,0,0,31,High
P1286_Exp7,19,F,1,5,17,3,3,7,1,1946.28439137523,317,0,1107,755,50,0,NA,7,2,234,99,55,13,0,0,31,High
P1286_Exp7,19,F,1,5,18,1,1,5,1,2821.17552342243,375,0,1871,283,0,0,NA,10,3,339,99,99,22,0,0,31,High
P1286_Exp7,19,F,1,5,19,4,4,8,1,1139.4075542994,258,0,775,380,0,59,258,3,4,136,99,1,37,0,28,31,High
P1286_Exp7,19,F,1,5,20,2,2,6,1,2337.74524853652,142,325,1987,142,0,142,242,7,3,281,99,70,14,0,0,31,High
P1286_Exp7,19,F,1,6,21,3,3,7,1,3362.23400588278,466,225,1433,522,0,0,NA,7,3,403,101,166,9,108,0,31,High
P1286_Exp7,19,F,1,6,22,2,2,6,1,1428.0531643526,250,134,772,442,0,0,NA,6,4,172,100,43,13,0,0,31,High
P1286_Exp7,19,F,1,6,23,1,1,5,1,2420.81261480052,183,333,1634,225,0,0,NA,8,2,291,99,43,17,0,0,31,High
P1286_Exp7,19,F,1,6,24,4,4,8,1,1011.41470982475,222,141,700,400,0,0,NA,2,3,122,100,14,29,0,0,31,High
P1286_Exp7,19,F,2,7,25,5,1,9,3,3996.71564294476,909,0,2333,317,0,334,316,12,4,480,100,62,2,0,0,31,High
P1286_Exp7,19,F,2,7,26,7,3,11,2,3411.45607733051,625,491,2133,250,0,0,NA,11,3,409,100,18,0,0,0,31,High
P1286_Exp7,19,F,2,7,27,8,4,12,2,2593.1589652937,225,374,1550,200,0,125,242,4,4,311,100,83,0,79,0,31,High
P1286_Exp7,19,F,2,7,28,6,2,10,1,7082.24619970861,1367,158,3291,374,184,0,NA,21,4,850,100,268,0,83,0,31,High
P1286_Exp7,19,F,2,8,29,5,1,9,1,1402.64863315679,266,225,959,384,0,0,NA,3,3,168,99,6,21,0,0,31,High
P1286_Exp7,19,F,2,8,30,8,4,12,1,1836.92949252509,250,0,1133,342,0,225,566,5,3,221,98,23,37,0,0,31,High
P1286_Exp7,19,F,2,8,31,6,2,10,2,2451.59182951465,741,367,1359,317,0,0,NA,8,4,294,99,42,0,0,0,31,High
P1286_Exp7,19,F,2,8,32,7,3,11,1,1146.91090188353,225,117,500,567,0,0,NA,3,3,138,99,0,0,0,0,31,High
P1286_Exp7,19,F,2,9,33,5,1,9,1,2481.49175293656,608,0,1149,541,0,125,225,7,4,298,99,34,0,0,0,31,High
P1286_Exp7,19,F,2,9,34,7,3,11,1,3327.3254611413,2133,483,584,284,0,0,NA,5,2,400,100,59,0,0,0,31,High
P1286_Exp7,19,F,2,9,35,6,2,10,1,2392.50060984341,800,150,1109,500,0,0,NA,8,3,287,100,41,2,0,0,31,High
P1286_Exp7,19,F,2,9,36,8,4,12,1,897.907911243237,108,0,442,233,0,432,284,4,4,107,100,8,19,0,0,31,High
P1286_Exp7,19,F,2,10,37,7,3,11,1,2747.39389374736,1109,442,1084,325,58,0,NA,9,2,330,99,63,4,0,0,31,High
P1286_Exp7,19,F,2,10,38,5,1,9,1,1644.46981733636,332,259,834,467,0,0,NA,6,3,197,100,21,3,0,0,31,High
P1286_Exp7,19,F,2,10,39,8,4,12,1,1148.51551574975,408,0,492,466,0,242,267,3,4,138,99,27,3,0,0,31,High
P1286_Exp7,19,F,2,10,40,6,2,10,1,734.54770758326,0,0,516,242,0,0,NA,2,3,88,99,20,0,0,0,31,High
P1286_Exp7,19,F,2,11,41,5,1,9,1,2062.7648269874,466,92,999,408,159,0,NA,7,4,248,99,50,24,0,0,31,High
P1286_Exp7,19,F,2,11,42,7,3,11,1,1309.74520030213,433,150,609,583,0,0,NA,4,3,157,100,41,0,0,0,31,High
P1286_Exp7,19,F,2,11,43,6,2,10,2,5754.59672405123,1775,0,2641,408,0,0,NA,10,2,691,99,117,37,31,35,31,High
P1286_Exp7,19,F,2,11,44,8,4,12,1,1001.70942390832,350,150,533,450,0,0,NA,2,3,120,99,0,22,0,0,31,High
P1286_Exp7,19,F,2,12,45,5,1,9,1,1650.50767942012,316,167,783,392,117,0,NA,6,5,198,99,11,45,0,0,31,High
P1286_Exp7,19,F,2,12,46,7,3,11,1,1954.72515499569,400,0,1157,800,0,0,NA,4,1,235,98,20,0,0,0,31,High
P1286_Exp7,19,F,2,12,47,6,2,10,2,2380.5074351767,417,159,1392,333,0,183,275,7,4,285,100,49,0,30,0,31,High
P1286_Exp7,19,F,2,12,48,8,4,12,1,781.559492992528,0,0,525,241,0,0,NA,3,1,94,99,0,65,0,60,31,High
P1286_Exp7,19,F,3,13,49,11,3,15,4,4408.98175655821,659,251,2890,158,0,167,321,17,4,530,99,121,12,0,12,31,High
P1286_Exp7,19,F,3,13,50,10,2,14,1,1823.25533796757,250,408,1058,226,0,0,NA,6,4,219,99,48,7,38,0,31,High
P1286_Exp7,19,F,3,13,51,12,4,16,1,1911.60308964027,200,216,1232,291,0,0,NA,7,3,230,100,24,10,0,0,31,High
P1286_Exp7,19,F,3,13,52,9,1,13,1,1579.46749698749,650,0,609,233,0,83,308,4,3,189,100,18,28,0,0,31,High
P1286_Exp7,19,F,3,14,53,11,3,15,1,1160.00566407092,275,138,684,449,0,0,NA,3,3,140,100,17,28,0,0,31,High
P1286_Exp7,19,F,3,14,54,9,1,13,1,859.682236987283,467,0,300,491,0,0,NA,2,4,103,101,4,33,0,29,31,High
P1286_Exp7,19,F,3,14,55,12,4,16,1,994.983958498779,391,108,438,450,0,133,258,4,4,120,100,28,1,0,0,31,High
P1286_Exp7,19,F,3,14,56,10,2,14,1,773.397913631925,158,216,509,525,0,0,NA,3,3,93,98,0,1,0,0,31,High
P1286_Exp7,19,F,3,15,57,9,1,13,1,1232.73826583682,533,0,442,533,0,0,NA,4,2,149,99,38,30,0,29,31,High
P1286_Exp7,19,F,3,15,58,12,4,16,1,856.57070828529,317,0,426,266,0,217,588,3,4,103,98,10,9,0,0,31,High
P1286_Exp7,19,F,3,15,59,10,2,14,1,2506.2275404307,472,483,799,283,0,0,NA,5,2,301,98,140,0,104,0,31,High
P1286_Exp7,19,F,3,15,60,11,3,15,1,1270.55830360041,150,0,834,241,0,491,284,6,3,152,99,18,2,0,0,31,High
P1286_Exp7,19,F,3,16,61,9,1,13,1,2262.90222398166,608,0,1150,526,0,67,717,8,4,272,100,19,2,0,0,31,High
P1286_Exp7,19,F,3,16,62,10,2,14,1,2429.32387012843,383,391,1109,367,0,0,NA,8,3,291,100,74,0,28,0,31,High
P1286_Exp7,19,F,3,16,63,12,4,16,2,4436.34243264023,358,83,2333,325,0,317,366,15,3,533,99,142,2,57,0,31,High
P1286_Exp7,19,F,3,16,64,11,3,15,1,586.401345772174,300,0,225,700,0,59,750,2,2,71,98,0,0,0,0,31,High
P1286_Exp7,19,F,3,17,65,10,2,14,1,1471.20614712549,342,0,742,768,0,0,NA,6,2,176,99,41,0,0,0,31,High
P1286_Exp7,19,F,3,17,66,12,4,16,2,1957.82184334166,409,300,1450,433,0,0,NA,3,3,235,99,0,3,0,0,31,High
P1286_Exp7,19,F,3,17,67,9,1,13,1,1753.67971350715,358,0,1042,492,0,0,NA,5,2,210,99,16,34,0,34,31,High
P1286_Exp7,19,F,3,17,68,11,3,15,1,771.81741534514,283,517,433,241,0,0,NA,2,2,93,98,0,0,0,0,31,High
P1286_Exp7,19,F,3,18,69,12,4,16,1,3188.48060380333,283,225,1834,450,217,0,NA,12,3,382,99,66,0,0,0,31,High
P1286_Exp7,19,F,3,18,70,9,1,13,1,1965.70547513329,550,191,925,442,0,0,NA,6,2,236,100,43,0,0,0,31,High
P1286_Exp7,19,F,3,18,71,11,3,15,1,1272.55680533926,409,208,559,451,0,0,NA,6,3,153,98,41,0,0,0,31,High
P1286_Exp7,19,F,3,18,72,10,2,14,1,630.569965647737,0,200,600,216,0,58,284,2,3,76,99,0,21,0,0,31,High
P1418_Exp7,21,F,1,1,1,1,1,5,3,7606.33656656137,417,0,6349,200,0,584,233,16,2,913,99,58,0,0,0,27,High
P1418_Exp7,21,F,1,1,2,4,4,8,4,4391.4067782498,308,0,3626,157,0,575,209,7,3,527,98,41,0,0,0,27,High
P1418_Exp7,21,F,1,1,3,3,3,7,2,3118.54226073046,533,0,2329,192,0,592,225,8,2,375,99,73,2,0,0,27,High
P1418_Exp7,21,F,1,1,4,2,2,6,2,2234.2568233762,391,0,1242,575,0,175,283,6,3,268,99,25,0,0,0,27,High
P1418_Exp7,21,F,1,2,5,3,3,7,3,6991.14651625132,333,0,5832,92,0,658,133,16,3,839,98,85,3,0,0,27,High
P1418_Exp7,21,F,1,2,6,2,2,6,1,1899.6671132154,292,0,1391,175,0,608,208,4,2,228,99,29,0,0,0,27,High
P1418_Exp7,21,F,1,2,7,4,4,8,4,5593.21061836818,0,0,3558,158,0,609,200,13,2,672,98,83,0,0,0,27,High
P1418_Exp7,21,F,1,2,8,1,1,5,2,5638.0580460318,350,0,4508,225,0,508,259,12,2,677,99,75,6,0,0,27,High
P1418_Exp7,21,F,1,3,9,4,4,8,1,5312.96211731751,350,0,3524,325,0,400,209,14,3,637,100,109,7,0,0,27,High
P1418_Exp7,21,F,1,3,10,2,2,6,1,2281.80147803141,275,0,1842,341,0,317,250,6,3,274,96,50,5,0,0,27,High
P1418_Exp7,21,F,1,3,11,1,1,5,1,2144.02524337493,267,0,1650,0,0,491,292,5,3,258,99,23,1,0,0,27,High
P1418_Exp7,21,F,1,3,12,3,3,7,1,1780.4020055446,200,0,1140,166,0,617,200,5,2,214,99,32,6,0,0,27,High
P1418_Exp7,21,F,1,4,13,2,2,6,1,2598.60198062597,142,0,2058,459,0,283,267,8,3,312,99,50,2,0,0,27,High
P1418_Exp7,21,F,1,4,14,1,1,5,1,1622.7011040246,200,0,1292,350,0,292,275,5,3,195,98,9,3,0,0,27,High
P1418_Exp7,21,F,1,4,15,4,4,8,1,1791.26233253191,0,0,1467,542,0,192,216,6,3,215,98,17,17,0,0,27,High
P1418_Exp7,21,F,1,4,16,3,3,7,1,576.887200939382,150,0,349,417,0,317,183,3,3,70,99,21,19,0,0,27,High
P1418_Exp7,21,F,1,5,17,4,4,8,1,1823.00638164452,0,0,1067,358,0,150,358,7,3,219,98,52,29,0,27,27,High
P1418_Exp7,21,F,1,5,18,1,1,5,1,3175.2848180804,1091,0,1784,750,0,0,NA,9,4,381,98,85,12,0,0,27,High
P1418_Exp7,21,F,1,5,19,3,3,7,1,1032.31107276224,133,0,624,775,0,0,NA,4,1,124,99,35,33,0,0,27,High
P1418_Exp7,21,F,1,5,20,2,2,6,1,568.730902756215,59,0,267,308,0,433,350,3,3,68,98,9,1,0,0,27,High
P1418_Exp7,21,F,1,6,21,4,4,8,1,2208.45755654591,0,0,1499,517,0,200,217,6,3,265,98,52,14,0,0,27,High
P1418_Exp7,21,F,1,6,22,1,1,5,1,2560.94592158843,134,0,909,533,0,0,NA,6,2,307,100,151,24,87,0,27,High
P1418_Exp7,21,F,1,6,23,3,3,7,1,1058.59048556522,133,0,799,258,0,434,308,4,2,127,100,39,31,0,0,27,High
P1418_Exp7,21,F,1,6,24,2,2,6,1,673.392214339401,150,0,425,242,0,334,308,3,4,81,98,21,33,0,0,27,High
P1418_Exp7,21,F,2,7,25,8,4,12,4,5922.52768877734,766,0,4659,208,0,359,241,11,3,711,99,70,9,0,0,27,High
P1418_Exp7,21,F,2,7,26,6,2,10,2,2779.57002046605,292,0,2250,216,0,566,259,7,2,334,100,53,0,0,0,27,High
P1418_Exp7,21,F,2,7,27,7,3,11,2,2676.13117971632,282,0,1434,175,0,416,225,4,3,322,100,123,11,88,0,27,High
P1418_Exp7,21,F,2,7,28,5,1,9,1,1393.02004400815,159,0,733,183,225,609,216,5,2,167,100,31,0,0,0,27,High
P1418_Exp7,21,F,2,8,29,7,3,11,1,3024.25216413394,266,0,2500,150,0,600,200,7,2,363,98,111,19,0,0,27,High
P1418_Exp7,21,F,2,8,30,8,4,12,1,2815.3453789273,0,0,575,808,0,0,NA,3,1,338,100,242,31,188,0,27,High
P1418_Exp7,21,F,2,8,31,6,2,10,2,2502.67543028531,0,258,2216,474,0,0,NA,4,3,300,99,55,33,0,0,27,High
P1418_Exp7,21,F,2,8,32,5,1,9,1,1451.05278112169,66,516,467,225,0,0,NA,5,2,174,99,86,33,61,0,27,High
P1418_Exp7,21,F,2,9,33,7,3,11,1,4291.06121536825,834,0,2975,342,0,192,250,11,3,515,99,188,33,0,0,27,High
P1418_Exp7,21,F,2,9,34,5,1,9,1,1462.0358498687,492,0,242,709,0,0,NA,4,2,176,99,35,31,0,0,27,High
P1418_Exp7,21,F,2,9,35,6,2,10,1,1781.50266213561,326,275,1252,316,0,133,325,7,3,214,99,70,33,0,0,27,High
P1418_Exp7,21,F,2,9,36,8,4,12,1,887.182699410914,208,0,584,242,0,200,275,3,3,107,98,36,32,0,0,27,High
P1418_Exp7,21,F,2,10,37,5,1,9,1,1135.58697923145,0,0,843,509,0,0,NA,6,2,136,99,28,22,0,0,27,High
P1418_Exp7,21,F,2,10,38,6,2,10,1,1915.87675490518,150,0,1502,250,0,0,NA,5,2,230,99,75,57,0,57,27,High
P1418_Exp7,21,F,2,10,39,7,3,11,1,1560.00418002077,208,0,1191,808,0,0,NA,6,1,187,100,23,24,0,0,27,High
P1418_Exp7,21,F,2,10,40,8,4,12,1,449.601831292966,0,0,425,241,0,267,292,1,3,54,99,17,18,0,0,27,High
P1418_Exp7,21,F,2,11,41,6,2,10,1,3251.49199256703,217,0,2358,367,0,275,434,10,3,390,99,110,29,0,0,27,High
P1418_Exp7,21,F,2,11,42,7,3,11,1,1417.0455841886,0,0,984,800,0,0,NA,3,1,171,98,52,31,0,0,27,High
P1418_Exp7,21,F,2,11,43,5,1,9,1,1202.59779689513,0,0,1066,741,0,0,NA,3,2,144,99,24,21,0,0,27,High
P1418_Exp7,21,F,2,11,44,8,4,12,1,652.856002889166,0,0,475,358,0,0,NA,3,2,79,98,23,31,0,0,27,High
P1418_Exp7,21,F,2,12,45,7,3,11,1,2531.92785257852,608,674,1624,92,0,0,NA,8,3,304,99,110,33,0,0,27,High
P1418_Exp7,21,F,2,12,46,8,4,12,1,1326.90335523876,0,0,775,733,0,0,NA,5,3,160,99,46,28,0,0,27,High
P1418_Exp7,21,F,2,12,47,6,2,10,2,1738.94435284456,175,0,1300,318,0,0,NA,6,3,209,98,38,42,0,0,27,High
P1418_Exp7,21,F,2,12,48,5,1,9,1,598.709882073308,0,0,500,533,0,0,NA,3,3,72,98,8,36,0,0,27,High
P1418_Exp7,21,F,3,13,49,11,3,15,1,5943.56445163794,400,0,2568,158,0,617,192,15,2,714,98,252,5,105,0,27,High
P1418_Exp7,21,F,3,13,50,12,4,16,1,1503.2118457857,159,0,1225,116,0,650,159,4,2,181,98,27,0,0,0,27,High
P1418_Exp7,21,F,3,13,51,9,1,13,1,2788.51903873147,583,0,1175,0,0,507,250,8,3,334,99,90,12,0,0,27,High
P1418_Exp7,21,F,3,13,52,10,2,14,1,997.887110352167,183,0,733,200,0,541,267,3,2,120,99,40,25,0,0,27,High
P1418_Exp7,21,F,3,14,53,11,3,15,1,2005.12392743985,142,0,1581,284,0,484,241,7,3,240,99,69,26,0,0,27,High
P1418_Exp7,21,F,3,14,54,12,4,16,1,1101.85123636984,158,0,800,733,0,0,NA,4,2,132,99,23,17,0,0,27,High
P1418_Exp7,21,F,3,14,55,9,1,13,1,2659.48003869562,434,0,1676,258,0,317,242,7,5,319,100,62,3,0,0,27,High
P1418_Exp7,21,F,3,14,56,10,2,14,1,785.003430275538,167,0,507,584,0,200,617,3,2,94,99,22,24,0,0,27,High
P1418_Exp7,21,F,3,15,57,12,4,16,1,1136.4375147059,141,0,807,767,0,0,NA,4,1,136,99,43,30,0,0,27,High
P1418_Exp7,21,F,3,15,58,9,1,13,1,3180.73894249756,908,267,1918,233,0,0,NA,10,4,382,99,101,23,0,0,27,High
P1418_Exp7,21,F,3,15,59,11,3,15,1,853.064818467828,0,0,517,342,0,309,391,3,3,102,99,34,32,0,0,27,High
P1418_Exp7,21,F,3,15,60,10,2,14,1,285.660577912495,0,0,259,0,0,450,367,1,2,34,99,5,18,0,0,27,High
P1418_Exp7,21,F,3,16,61,9,1,13,1,1212.8063867749,275,0,825,384,0,0,NA,5,2,145,100,23,48,0,45,27,High
P1418_Exp7,21,F,3,16,62,10,2,14,1,741.701868610107,142,0,491,300,0,233,350,3,3,89,100,11,14,0,0,27,High
P1418_Exp7,21,F,3,16,63,12,4,16,1,985.739386160276,159,0,708,300,0,0,NA,4,2,119,98,22,23,0,0,27,High
P1418_Exp7,21,F,3,16,64,11,3,15,1,820.185485368711,0,0,568,233,0,216,283,3,2,98,99,31,57,0,38,27,High
P1418_Exp7,21,F,3,17,65,9,1,13,1,1149.75731449886,75,0,775,615,0,58,517,4,5,138,99,17,21,0,0,27,High
P1418_Exp7,21,F,3,17,66,10,2,14,1,745.46234223817,0,0,717,825,0,0,NA,1,1,89,100,5,9,0,0,27,High
P1418_Exp7,21,F,3,17,67,12,4,16,1,1132.31438091316,0,0,874,408,0,217,583,2,3,136,99,51,19,0,0,27,High
P1418_Exp7,21,F,3,17,68,11,3,15,1,698.413601392531,0,58,683,100,0,0,NA,1,3,83,99,25,29,0,0,27,High
P1418_Exp7,21,F,3,18,69,9,1,13,1,1047.1217057202,83,0,758,708,0,0,NA,5,3,126,99,15,8,0,0,27,High
P1418_Exp7,21,F,3,18,70,11,3,15,1,2582.81559704483,0,0,1734,799,0,0,NA,10,3,310,100,109,28,26,0,27,High
P1418_Exp7,21,F,3,18,71,12,4,16,1,1199.67178173101,0,92,1124,551,0,0,NA,2,3,144,99,32,38,0,0,27,High
P1418_Exp7,21,F,3,18,72,10,2,14,1,496.360567678494,0,0,483,200,0,500,266,1,3,60,99,4,13,0,0,27,High
P1472_Exp7,19,M,1,1,1,4,4,8,4,6925.46420445433,775,0,5214,250,0,425,275,16,2,831,99,27,19,0,0,23,Low
P1472_Exp7,19,M,1,1,2,2,2,6,2,2920.39360164199,833,0,1733,233,0,426,275,6,3,351,98,24,24,0,0,23,Low
P1472_Exp7,19,M,1,1,3,3,3,7,3,2380.00074916636,417,0,1708,333,0,399,250,6,4,285,100,9,24,0,0,23,Low
P1472_Exp7,19,M,1,1,4,1,1,5,4,5396.01437503006,866,0,3788,217,0,325,266,12,4,648,100,52,22,31,0,23,Low
P1472_Exp7,19,M,1,2,5,4,4,8,4,3949.89354914287,1258,467,1932,0,0,217,583,10,2,474,97,64,22,48,0,23,Low
P1472_Exp7,19,M,1,2,6,3,3,7,2,1999.67566589476,401,108,859,0,0,83,559,8,6,240,99,47,36,0,0,23,Low
P1472_Exp7,19,M,1,2,7,2,2,6,1,2288.38469157927,816,58,1125,267,0,367,325,7,3,274,99,32,11,0,0,23,Low
P1472_Exp7,19,M,1,2,8,1,1,5,1,1428.64513292443,500,233,816,167,0,300,225,3,3,172,99,14,5,0,0,23,Low
P1472_Exp7,19,M,1,3,9,2,2,6,2,3930.95295625972,1300,0,1216,358,0,50,375,15,5,472,99,92,52,26,30,23,Low
P1472_Exp7,19,M,1,3,10,3,3,7,1,1477.52479746123,466,0,825,242,0,0,NA,5,4,177,100,18,56,0,37,23,Low
P1472_Exp7,19,M,1,3,11,4,4,8,1,1396.15443052026,158,141,1026,75,0,0,NA,6,3,168,99,22,52,0,38,23,Low
P1472_Exp7,19,M,1,3,12,1,1,5,1,501.270845037652,200,300,175,191,0,0,NA,2,3,60,99,9,40,0,33,23,Low
P1472_Exp7,19,M,1,4,13,3,3,7,1,1828.3791821159,991,233,517,242,50,0,NA,5,3,220,99,22,38,0,32,23,Low
P1472_Exp7,19,M,1,4,14,4,4,8,1,2301.13746772986,892,392,692,0,0,0,NA,8,4,276,99,20,50,0,39,23,Low
P1472_Exp7,19,M,1,4,15,1,1,5,2,2209.65435460676,1173,0,590,335,0,83,642,9,4,266,99,51,36,0,27,23,Low
P1472_Exp7,19,M,1,4,16,2,2,6,1,737.539149267832,234,725,267,0,0,0,NA,3,1,88,99,21,21,0,0,23,Low
P1472_Exp7,19,M,1,5,17,4,4,8,1,1889.00186313549,533,67,1116,509,0,0,NA,5,3,227,98,27,22,0,0,23,Low
P1472_Exp7,19,M,1,5,18,3,3,7,1,856.205709016649,350,259,192,109,0,0,NA,3,5,103,98,26,34,0,30,23,Low
P1472_Exp7,19,M,1,5,19,2,2,6,1,4503.87440397753,1942,624,733,0,0,0,NA,17,3,541,99,150,34,60,0,23,Low
P1472_Exp7,19,M,1,5,20,1,1,5,1,474.847368925111,108,650,100,58,0,0,NA,2,2,57,100,14,17,0,0,23,Low
P1472_Exp7,19,M,1,6,21,4,4,8,1,1444.18017007411,359,342,458,0,0,0,NA,5,5,173,100,36,31,28,0,23,Low
P1472_Exp7,19,M,1,6,22,3,3,7,1,1419.52824499458,850,292,0,0,0,0,NA,2,4,171,98,50,43,49,0,23,Low
P1472_Exp7,19,M,1,6,23,1,1,5,1,1412.2741142055,400,325,600,0,0,0,NA,5,2,169,100,41,49,0,40,23,Low
P1472_Exp7,19,M,1,6,24,2,2,6,1,548.921248351689,175,167,233,0,0,541,242,3,2,66,99,1,16,0,0,23,Low
P1472_Exp7,19,M,2,7,25,7,3,11,1,1792.57260856684,767,0,683,233,0,566,259,4,2,215,100,33,4,0,0,23,Low
P1472_Exp7,19,M,2,7,26,8,4,12,1,3417.50346968183,1498,41,250,0,0,383,433,15,2,411,99,127,13,70,0,23,Low
P1472_Exp7,19,M,2,7,27,5,1,9,1,1632.99842661945,991,233,409,183,0,0,NA,5,4,196,99,8,50,0,29,23,Low
P1472_Exp7,19,M,2,7,28,6,2,10,1,992.70938677364,434,209,483,0,0,208,617,2,6,119,100,7,39,1,0,23,Low
P1472_Exp7,19,M,2,8,29,5,1,9,1,2949.39514901489,1267,58,725,0,0,0,NA,6,3,354,99,97,53,71,30,23,Low
P1472_Exp7,19,M,2,8,30,7,3,11,1,4366.32262903731,1826,275,150,0,0,284,533,15,4,524,99,204,34,148,0,23,Low
P1472_Exp7,19,M,2,8,31,8,4,12,1,3135.00758865848,1476,0,159,167,0,608,208,18,2,376,99,86,2,26,0,23,Low
P1472_Exp7,19,M,2,8,32,6,2,10,1,1489.37665426638,433,0,966,125,0,650,159,3,2,179,98,10,3,0,0,23,Low
P1472_Exp7,19,M,2,9,33,8,4,12,1,3980.25434443844,1884,0,800,117,0,608,208,9,2,478,99,86,3,65,0,23,Low
P1472_Exp7,19,M,2,9,34,7,3,11,1,1003.81550643942,416,0,508,0,0,692,8,2,1,120,99,2,17,0,0,23,Low
P1472_Exp7,19,M,2,9,35,5,1,9,1,1942.3670238175,683,0,976,0,0,825,0,8,1,233,100,18,1,0,0,23,Low
P1472_Exp7,19,M,2,9,36,6,2,10,1,1641.15039637545,708,0,833,150,0,634,175,3,2,197,98,0,0,0,0,23,Low
P1472_Exp7,19,M,2,10,37,5,1,9,1,1306.25058547594,258,0,893,217,0,525,250,5,3,157,98,4,16,0,0,23,Low
P1472_Exp7,19,M,2,10,38,8,4,12,1,959.774093324086,325,0,525,133,0,642,8,4,2,115,100,0,0,0,0,23,Low
P1472_Exp7,19,M,2,10,39,6,2,10,2,1419.58049527602,225,0,1100,258,0,466,284,3,3,170,99,1,28,0,0,23,Low
P1472_Exp7,19,M,2,10,40,7,3,11,1,309.039018582553,83,400,0,0,0,333,484,3,2,38,99,2,2,0,0,23,Low
P1472_Exp7,19,M,2,11,41,8,4,12,1,1005.57593864505,550,217,342,108,0,258,467,2,3,121,98,8,34,0,0,23,Low
P1472_Exp7,19,M,2,11,42,7,3,11,1,1078.88090432971,459,391,592,33,0,0,NA,2,2,130,99,5,43,0,41,23,Low
P1472_Exp7,19,M,2,11,43,6,2,10,1,1965.2118315571,784,0,933,208,0,317,241,6,3,236,99,17,37,0,26,23,Low
P1472_Exp7,19,M,2,11,44,5,1,9,1,967.556601099204,400,0,416,158,0,625,192,3,2,116,99,8,0,0,0,23,Low
P1472_Exp7,19,M,2,12,45,6,2,10,1,1857.98129069735,523,42,967,0,0,374,234,7,5,223,98,17,36,0,0,23,Low
P1472_Exp7,19,M,2,12,46,7,3,11,1,5527.83130769967,1959,250,1367,0,0,483,325,17,3,664,98,182,3,142,0,23,Low
P1472_Exp7,19,M,2,12,47,8,4,12,1,953.493858105503,359,0,325,243,0,500,308,3,3,115,98,1,0,0,0,23,Low
P1472_Exp7,19,M,2,12,48,5,1,9,1,861.993431317387,300,200,416,0,0,375,258,4,2,103,99,3,30,0,0,23,Low
P1472_Exp7,19,M,3,13,49,10,2,14,1,1305.03398895962,525,0,734,283,0,492,316,2,2,157,98,12,1,0,0,23,Low
P1472_Exp7,19,M,3,13,50,12,4,16,1,1022.52110338304,383,384,0,0,0,0,NA,4,3,123,98,9,1,0,0,23,Low
P1472_Exp7,19,M,3,13,51,9,1,13,1,1159.51822156785,433,91,316,225,0,367,458,3,3,139,100,9,22,0,0,23,Low
P1472_Exp7,19,M,3,13,52,11,3,15,1,778.478639054811,192,0,233,167,0,625,191,4,2,94,99,12,2,0,0,23,Low
P1472_Exp7,19,M,3,14,53,10,2,14,1,6167.69090597518,3241,0,1051,0,0,558,267,20,2,740,100,169,28,116,0,23,Low
P1472_Exp7,19,M,3,14,54,9,1,13,1,1436.63046968868,391,0,749,200,0,466,184,5,4,173,98,29,20,0,0,23,Low
P1472_Exp7,19,M,3,14,55,11,3,15,1,885.256550362101,233,0,574,225,0,567,250,3,2,106,99,2,0,0,0,23,Low
P1472_Exp7,19,M,3,14,56,12,4,16,1,1300.97052559722,533,125,683,0,0,625,192,4,2,156,99,0,4,0,0,23,Low
P1472_Exp7,19,M,3,15,57,10,2,14,2,3007.12273217505,616,0,1876,442,0,300,508,5,3,361,98,54,35,29,0,23,Low
P1472_Exp7,19,M,3,15,58,11,3,15,1,2391.58764458261,1725,225,300,0,0,208,592,5,3,287,97,22,29,0,0,23,Low
P1472_Exp7,19,M,3,15,59,12,4,16,1,1217.38091344014,459,0,675,158,0,551,200,3,3,146,99,1,25,0,0,23,Low
P1472_Exp7,19,M,3,15,60,9,1,13,1,530.099093099125,359,0,83,167,0,609,208,2,2,64,99,8,0,0,0,23,Low
P1472_Exp7,19,M,3,16,61,10,2,14,2,3081.30976898246,1424,167,1334,0,0,333,283,7,3,370,99,31,29,0,0,23,Low
P1472_Exp7,19,M,3,16,62,9,1,13,1,940.757777338149,367,183,449,0,0,567,242,4,3,112,100,0,4,0,0,23,Low
P1472_Exp7,19,M,3,16,63,12,4,16,1,3096.02393989917,116,0,2313,516,0,200,625,7,3,372,100,102,7,28,0,23,Low
P1472_Exp7,19,M,3,16,64,11,3,15,1,949.36083079665,209,0,676,0,0,592,8,3,2,114,99,2,25,0,0,23,Low
P1472_Exp7,19,M,3,17,65,9,1,13,1,1723.51568265003,642,0,392,175,0,600,233,4,2,206,101,46,6,39,0,23,Low
P1472_Exp7,19,M,3,17,66,11,3,15,2,1799.29186968366,508,0,1184,0,0,241,291,4,4,216,99,13,39,0,27,23,Low
P1472_Exp7,19,M,3,17,67,10,2,14,1,1064.33090436622,566,0,225,384,0,283,250,2,3,128,100,36,37,27,0,23,Low
P1472_Exp7,19,M,3,17,68,12,4,16,1,4262.22741359379,2104,0,0,292,0,250,575,8,2,512,100,196,21,149,0,23,Low
P1472_Exp7,19,M,3,18,69,11,3,15,2,4699.20044721221,1775,58,1284,0,0,317,500,17,4,564,99,109,36,28,26,23,Low
P1472_Exp7,19,M,3,18,70,12,4,16,1,2412.993869395,534,0,492,242,0,500,325,5,2,289,100,144,1,120,0,23,Low
P1472_Exp7,19,M,3,18,71,9,1,13,1,1749.65349413105,776,0,642,200,0,500,316,4,2,210,99,39,26,28,0,23,Low
P1472_Exp7,19,M,3,18,72,10,2,14,1,1136.71638895175,374,0,634,0,0,391,409,4,3,136,97,11,24,0,0,23,Low
P1524_Exp7,20,F,1,1,1,2,2,6,3,9218.43203293975,1151,0,5382,283,0,492,225,30,3,1106,100,160,0,64,0,30,High
P1524_Exp7,20,F,1,1,2,4,4,8,2,4225.79867998138,225,0,3175,175,0,375,225,14,3,508,98,19,1,0,0,30,High
P1524_Exp7,20,F,1,1,3,1,1,5,1,3560.65788140404,217,159,2241,0,150,400,208,14,3,428,100,27,0,0,0,30,High
P1524_Exp7,20,F,1,1,4,3,3,7,2,3992.76752129663,649,125,2592,192,0,383,225,12,3,479,101,18,3,0,0,30,High
P1524_Exp7,20,F,1,2,5,1,1,5,1,1995.85151442443,300,0,1451,42,0,208,242,6,6,240,100,1,19,0,0,30,High
P1524_Exp7,20,F,1,2,6,2,2,6,1,2907.53646296798,743,0,1749,325,0,216,225,10,3,349,98,5,0,0,0,30,High
P1524_Exp7,20,F,1,2,7,3,3,7,1,1600.5902592733,425,0,775,550,0,183,225,6,3,193,98,12,0,0,0,30,High
P1524_Exp7,20,F,1,2,8,4,4,8,1,1641.64802405867,458,250,443,217,0,267,250,6,3,197,100,12,0,0,0,30,High
P1524_Exp7,20,F,1,3,9,2,2,6,1,2959.75689165061,742,0,1206,483,0,267,233,12,3,355,100,33,1,0,0,30,High
P1524_Exp7,20,F,1,3,10,3,3,7,1,2551.95190021186,1168,0,517,750,158,0,NA,7,2,306,99,52,0,0,0,30,High
P1524_Exp7,20,F,1,3,11,1,1,5,1,1466.2765613466,225,0,1025,92,0,392,267,4,3,176,99,0,0,0,0,30,High
P1524_Exp7,20,F,1,3,12,4,4,8,1,649.815736396704,0,0,58,441,0,0,NA,1,2,78,99,74,18,46,0,30,High
P1524_Exp7,20,F,1,4,13,3,3,7,1,1223.32653871854,267,0,641,366,159,291,242,5,3,147,98,2,0,0,0,30,High
P1524_Exp7,20,F,1,4,14,2,2,6,1,873.924493324012,150,0,484,258,0,516,292,3,2,105,98,1,0,0,0,30,High
P1524_Exp7,20,F,1,4,15,1,1,5,1,1400.15636692988,258,0,876,0,67,500,8,6,3,168,98,0,9,0,0,30,High
P1524_Exp7,20,F,1,4,16,4,4,8,1,1177.53627436468,0,0,818,0,0,650,8,5,2,141,100,0,13,0,0,30,High
P1524_Exp7,20,F,1,5,17,2,2,6,1,1338.85895035928,250,258,742,0,0,484,8,3,2,161,98,0,0,0,0,30,High
P1524_Exp7,20,F,1,5,18,3,3,7,1,1029.94888453395,0,0,700,217,0,0,NA,3,2,124,99,11,0,0,0,30,High
P1524_Exp7,20,F,1,5,19,4,4,8,1,2110.34758068854,716,0,899,458,0,225,291,7,3,253,100,14,0,0,0,30,High
P1524_Exp7,20,F,1,5,20,1,1,5,1,483.504566305783,200,50,217,0,0,542,125,2,4,58,99,0,19,0,0,30,High
P1524_Exp7,20,F,1,6,21,3,3,7,1,1290.61787761748,250,0,741,750,158,0,NA,4,2,155,98,0,0,0,0,30,High
P1524_Exp7,20,F,1,6,22,1,1,5,1,1529.81918677688,225,0,742,259,0,417,375,7,3,184,99,25,15,0,0,30,High
P1524_Exp7,20,F,1,6,23,2,2,6,1,2125.64016738907,375,0,1065,516,0,0,NA,6,2,255,100,51,1,51,0,30,High
P1524_Exp7,20,F,1,6,24,4,4,8,1,608.023687527748,250,0,275,225,0,292,283,2,3,73,100,0,15,0,0,30,High
P1524_Exp7,20,F,2,7,25,8,4,12,1,1966.1796358414001,525,0,742,408,0,317,242,9,3,236,99,13,4,0,0,30,High
P1524_Exp7,20,F,2,7,26,6,2,10,1,3856.28745346912,466,0,1441,359,167,225,325,9,3,463,98,185,12,138,0,30,High
P1524_Exp7,20,F,2,7,27,5,1,9,1,1702.29679727345,408,241,742,167,141,275,317,5,3,204,99,26,0,0,0,30,High
P1524_Exp7,20,F,2,7,28,7,3,11,1,1955.37252005306,775,142,708,175,0,391,225,5,3,235,98,25,1,0,0,30,High
P1524_Exp7,20,F,2,8,29,6,2,10,1,1551.82297536521,275,42,959,150,150,116,242,5,3,187,99,0,37,0,0,30,High
P1524_Exp7,20,F,2,8,30,5,1,9,1,3627.05478499993,525,0,1749,0,0,583,242,9,3,435,100,89,0,73,0,30,High
P1524_Exp7,20,F,2,8,31,8,4,12,1,3903.91172759701,967,0,1199,58,183,700,100,13,3,468,99,113,0,0,0,30,High
P1524_Exp7,20,F,2,8,32,7,3,11,1,1387.84420065349,225,0,999,125,0,425,175,6,3,167,99,25,23,0,0,30,High
P1524_Exp7,20,F,2,9,33,5,1,9,1,1455.05391806364,175,0,842,825,0,0,NA,6,1,175,100,3,0,0,0,30,High
P1524_Exp7,20,F,2,9,34,7,3,11,1,1654.01058539283,450,0,742,358,0,0,NA,4,2,198,99,25,40,0,0,30,High
P1524_Exp7,20,F,2,9,35,6,2,10,1,1948.17344436888,442,0,809,483,275,258,134,8,4,234,99,47,0,0,0,30,High
P1524_Exp7,20,F,2,9,36,8,4,12,1,1535.95440078061,417,0,559,0,175,459,8,6,3,184,99,19,26,0,26,30,High
P1524_Exp7,20,F,2,10,37,6,2,10,1,2042.40512504475,690,284,575,150,117,283,192,8,3,245,100,23,2,0,0,30,High
P1524_Exp7,20,F,2,10,38,8,4,12,1,4409.09700989141,2316,0,650,450,0,317,8,9,2,529,98,127,0,49,0,30,High
P1524_Exp7,20,F,2,10,39,7,3,11,1,1737.30931722093,700,141,342,0,0,391,225,6,3,208,99,30,0,0,0,30,High
P1524_Exp7,20,F,2,10,40,5,1,9,1,836.002662574174,234,0,242,0,200,809,8,3,1,100,99,0,0,0,0,30,High
P1524_Exp7,20,F,2,11,41,6,2,10,1,1996.96824458078,600,0,567,0,167,500,174,7,2,239,100,46,22,0,0,30,High
P1524_Exp7,20,F,2,11,42,8,4,12,1,4508.49897798616,459,0,1809,0,0,566,67,8,1,541,99,221,24,170,0,30,High
P1524_Exp7,20,F,2,11,43,5,1,9,1,2320.03562900354,799,0,642,583,0,0,NA,10,1,279,98,63,30,0,26,30,High
P1524_Exp7,20,F,2,11,44,7,3,11,1,1194.83849307289,300,58,382,133,0,0,NA,6,3,143,100,31,55,0,46,30,High
P1524_Exp7,20,F,2,12,45,8,4,12,1,3642.26669011987,1242,275,449,484,0,0,NA,11,3,437,99,147,0,97,0,30,High
P1524_Exp7,20,F,2,12,46,6,2,10,1,5608.08553436073,400,0,601,0,0,392,338,9,1,674,99,437,50,385,37,30,High
P1524_Exp7,20,F,2,12,47,5,1,9,1,1422.34659878886,458,0,841,159,0,225,209,4,3,171,98,1,38,0,33,30,High
P1524_Exp7,20,F,2,12,48,7,3,11,1,862.06063919235,0,0,491,150,0,0,NA,1,1,104,99,38,76,34,74,30,High
P1524_Exp7,20,F,3,13,49,12,4,16,1,1346.43646524637,393,0,600,233,0,241,392,6,4,162,99,18,8,0,0,30,High
P1524_Exp7,20,F,3,13,50,11,3,15,1,1789.88499718253,333,0,901,134,0,633,175,8,2,215,98,17,0,0,0,30,High
