subj,age,sex,phase,block,trial,cue,resp,out,numResp,RT,AOI_cue_p1,AOI_cue_p2,AOI_resp_p1,AOI_resp_p2,AOI_out_p1,AOI_out_p2,tOutFix,nFix_p1,nFix_p2,samples_p1,samples_p2,raw_NA_p1,raw_NA_p2,post_interp_NA_p1,post_interp_NA_p2,ICU,ICU_medSplit
P101_Exp5,34,F,1,1,1,4,4,8,25,85465.6727447427,10318,0,50567,1571,220,690,260,224,9,25644,792,4563,6,3914,0,14,Low
P101_Exp5,34,F,1,1,2,1,1,5,1,3341.96611540619,473,0,1767,734,0,1599,247,10,8,1003,791,138,0,87,0,14,Low
P101_Exp5,34,F,1,1,3,3,3,7,2,4996.46596372804,961,490,2955,267,0,1614,190,18,10,1499,800,61,0,56,0,14,Low
P101_Exp5,34,F,1,1,4,2,2,6,1,4047.33808093715,990,0,2266,700,0,1078,187,13,11,1214,795,0,97,0,87,14,Low
P101_Exp5,34,F,1,2,5,3,3,7,3,5508.59914693319,543,400,4124,573,0,1180,200,20,9,1653,791,0,58,0,58,14,Low
P101_Exp5,34,F,1,2,6,2,2,6,3,6379.45343822958,1532,404,3873,1314,136,343,220,18,8,1914,795,14,99,0,96,14,Low
P101_Exp5,34,F,1,2,7,4,4,8,3,5781.84973924635,560,293,4458,844,0,656,170,13,16,1735,794,78,50,75,47,14,Low
P101_Exp5,34,F,1,2,8,1,1,5,5,6752.34397099757,496,0,4819,147,206,1975,219,21,13,2026,793,5,48,0,0,14,Low
P101_Exp5,34,F,1,3,9,3,3,7,1,6496.71790727734,1098,667,3420,653,0,830,193,29,10,1949,795,333,24,150,0,14,Low
P101_Exp5,34,F,1,3,10,2,2,6,1,4822.40262413779,1253,807,2653,287,0,693,200,16,12,1447,792,55,29,48,29,14,Low
P101_Exp5,34,F,1,3,11,1,1,5,1,3810.28032079848,947,167,1976,1607,0,253,190,16,11,1144,790,0,45,0,32,14,Low
P101_Exp5,34,F,1,3,12,4,4,8,1,3051.98143681719,737,286,1571,951,0,296,166,14,14,916,793,2,121,0,82,14,Low
P101_Exp5,34,F,1,4,13,1,1,5,2,8421.34347991032,1630,326,4480,913,0,217,223,26,11,2527,792,323,185,245,180,14,Low
P101_Exp5,34,F,1,4,14,2,2,6,3,5662.05644815545,427,863,4738,663,0,513,219,11,12,1699,795,25,7,0,0,14,Low
P101_Exp5,34,F,1,4,15,3,3,7,1,1751.74920502286,130,296,1314,839,0,583,167,3,13,526,793,0,117,0,68,14,Low
P101_Exp5,34,F,1,4,16,4,4,8,1,1147.73065207919,410,0,617,1432,0,406,177,4,8,344,794,2,55,0,31,14,Low
P101_Exp5,34,F,1,5,17,1,1,5,1,4061.83646154386,520,0,2777,1465,0,533,180,13,13,1219,795,83,73,41,70,14,Low
P101_Exp5,34,F,1,5,18,4,4,8,1,3989.19906697665,473,271,2818,1032,0,229,187,12,10,1197,792,100,201,86,195,14,Low
P101_Exp5,34,F,1,5,19,3,3,7,1,3449.52190458207,537,356,2323,948,0,246,173,10,11,1035,794,19,116,0,106,14,Low
P101_Exp5,34,F,1,5,20,2,2,6,2,3690.31892512066,1237,737,2112,297,0,223,170,11,7,1107,791,0,370,0,359,14,Low
P101_Exp5,34,F,1,6,21,1,1,5,1,2683.04434846414,734,117,1281,1083,0,469,183,13,14,805,793,72,213,41,109,14,Low
P101_Exp5,34,F,1,6,22,4,4,8,1,1946.36098369301,384,200,1223,1023,0,267,750,5,14,584,795,0,173,0,167,14,Low
P101_Exp5,34,F,1,6,23,2,2,6,2,3208.53757969508,1009,983,1693,465,0,237,197,9,9,963,790,16,144,0,104,14,Low
P101_Exp5,34,F,1,6,24,3,3,7,1,1116.23493511979,193,0,623,1467,0,283,200,6,12,334,795,0,105,0,80,14,Low
P101_Exp5,34,F,2,7,25,7,3,11,1,6365.07281616559,2411,363,2464,723,0,876,193,19,11,1910,794,214,40,156,40,14,Low
P101_Exp5,34,F,2,7,26,5,1,9,2,6369.11799278005,1424,298,3137,717,0,736,290,21,8,1911,793,207,117,169,81,14,Low
P101_Exp5,34,F,2,7,27,8,4,12,2,5164.15242222047,953,267,3346,676,0,1083,183,16,12,1549,795,36,68,36,42,14,Low
P101_Exp5,34,F,2,7,28,6,2,10,1,1303.91218625937,197,320,747,808,0,503,210,3,13,391,792,0,71,0,46,14,Low
P101_Exp5,34,F,2,8,29,7,3,11,1,2404.16139917579,400,283,1549,427,0,1246,193,8,9,721,797,14,42,0,29,14,Low
P101_Exp5,34,F,2,8,30,5,1,9,1,3765.76545826174,590,1154,1616,223,0,377,197,13,16,1130,794,277,74,216,58,14,Low
P101_Exp5,34,F,2,8,31,8,4,12,1,2307.7717651704,777,0,956,1207,0,414,27,7,8,692,792,99,201,95,148,14,Low
P101_Exp5,34,F,2,8,32,6,2,10,1,1059.82773973119,163,0,736,224,0,553,193,4,4,318,795,0,543,0,534,14,Low
P101_Exp5,34,F,2,9,33,5,1,9,1,3299.29613670902,1389,606,721,833,0,333,179,9,11,990,794,259,138,249,131,14,Low
P101_Exp5,34,F,2,9,34,7,3,11,1,1331.50736481548,333,437,867,626,0,911,190,5,13,400,793,0,46,0,0,14,Low
P101_Exp5,34,F,2,9,35,8,4,12,1,2217.08531393051,812,126,1133,663,0,630,173,7,9,666,793,0,211,0,193,14,Low
P101_Exp5,34,F,2,9,36,6,2,10,1,1211.32282523195,160,0,909,1863,0,354,183,5,8,363,796,0,35,0,0,14,Low
P101_Exp5,34,F,2,10,37,5,1,9,1,1907.69522211758,357,857,1287,778,0,213,237,6,9,572,791,23,130,0,82,14,Low
P101_Exp5,34,F,2,10,38,6,2,10,1,1442.64412301618,0,167,866,516,0,1591,154,2,8,433,791,151,11,151,0,14,Low
P101_Exp5,34,F,2,10,39,8,4,12,1,2261.36593936553,217,276,1827,1008,0,547,163,6,10,678,795,0,74,0,49,14,Low
P101_Exp5,34,F,2,10,40,7,3,11,1,1158.57766453246,167,0,691,1134,0,639,204,6,11,348,791,0,156,0,130,14,Low
P101_Exp5,34,F,2,11,41,8,4,12,1,3666.11698457837,1612,227,1733,1347,0,227,196,11,10,1100,794,4,163,0,150,14,Low
P101_Exp5,34,F,2,11,42,5,1,9,1,3660.21199097759,1380,398,1592,694,0,600,191,12,15,1098,791,10,143,0,127,14,Low
P101_Exp5,34,F,2,11,43,7,3,11,1,1988.90381729689,230,0,1467,1259,0,153,290,6,7,597,792,17,281,0,266,14,Low
P101_Exp5,34,F,2,11,44,6,2,10,1,545.482317232199,0,163,540,160,0,1001,223,1,5,164,794,0,270,0,258,14,Low
P101_Exp5,34,F,2,12,45,8,4,12,1,3020.21009660075,888,0,1419,1603,0,281,220,9,7,907,792,22,150,0,135,14,Low
P101_Exp5,34,F,2,12,46,6,2,10,1,1127.37079733142,167,234,699,593,0,427,187,6,7,338,795,0,291,0,252,14,Low
P101_Exp5,34,F,2,12,47,5,1,9,1,2972.07927880572,1367,1466,1100,160,0,183,303,11,8,891,792,61,94,0,48,14,Low
P101_Exp5,34,F,2,12,48,7,3,11,1,906.17033431954,133,0,523,1552,0,377,203,3,9,272,792,0,91,0,80,14,Low
P101_Exp5,34,F,3,13,49,12,4,16,1,2259.07818100677,204,270,1479,693,0,826,157,7,13,678,791,0,47,0,31,14,Low
P101_Exp5,34,F,3,13,50,9,1,13,1,2475.3955044398,503,507,1783,506,0,880,190,6,9,743,791,0,74,0,58,14,Low
P101_Exp5,34,F,3,13,51,10,2,14,1,2237.62180649283,167,553,1590,371,0,813,270,8,12,672,792,0,146,0,116,14,Low
P101_Exp5,34,F,3,13,52,11,3,15,1,1110.16866351292,170,0,533,126,0,2210,167,4,9,333,791,0,0,0,0,14,Low
P101_Exp5,34,F,3,14,53,10,2,14,1,4433.51527597133,2026,380,1705,625,0,974,83,12,11,1330,794,76,72,76,66,14,Low
P101_Exp5,34,F,3,14,54,9,1,13,1,2010.10078168656,525,609,1157,399,0,857,124,8,10,603,790,0,89,0,38,14,Low
P101_Exp5,34,F,3,14,55,11,3,15,1,2533.04215115804,786,450,1527,866,0,753,217,9,11,760,794,0,59,0,47,14,Low
P101_Exp5,34,F,3,14,56,12,4,16,1,1388.60063171524,226,416,888,603,0,1203,103,5,7,416,792,0,52,0,45,14,Low
P101_Exp5,34,F,3,15,57,9,1,13,1,1372.3004600688,236,0,722,537,0,1200,196,5,11,412,792,46,40,44,37,14,Low
P101_Exp5,34,F,3,15,58,10,2,14,1,1649.67601467561,420,170,997,1213,0,420,177,6,10,495,794,0,151,0,105,14,Low
P101_Exp5,34,F,3,15,59,11,3,15,1,4939.77162522606,1608,160,2302,290,0,1388,170,14,11,1483,791,45,103,35,78,14,Low
P101_Exp5,34,F,3,15,60,12,4,16,1,1312.86695545896,233,0,716,170,0,1194,210,5,6,394,795,0,312,0,304,14,Low
P101_Exp5,34,F,3,16,61,9,1,13,1,2059.92501852779,450,269,1360,752,0,1054,300,6,10,618,791,8,72,0,65,14,Low
P101_Exp5,34,F,3,16,62,12,4,16,1,4820.9442955158,1214,1293,3046,163,0,603,163,14,7,1446,793,13,40,0,37,14,Low
P101_Exp5,34,F,3,16,63,11,3,15,1,1527.77117637743,229,566,664,200,0,1074,227,4,12,459,800,114,60,114,56,14,Low
P101_Exp5,34,F,3,16,64,10,2,14,1,1022.77561152277,147,0,763,354,0,1109,163,3,12,307,791,0,240,0,207,14,Low
P101_Exp5,34,F,3,17,65,9,1,13,1,1315.88985138933,267,693,816,381,0,1071,187,6,9,394,794,10,54,0,42,14,Low
P101_Exp5,34,F,3,17,66,11,3,15,1,1692.28583411677,502,616,740,97,0,786,154,10,7,508,791,0,239,0,204,14,Low
P101_Exp5,34,F,3,17,67,10,2,14,1,2667.97509492153,903,216,962,431,0,1317,133,7,12,800,793,167,54,147,36,14,Low
P101_Exp5,34,F,3,17,68,12,4,16,1,1549.13923198365,194,292,1127,1106,0,650,70,6,8,465,794,0,106,0,93,14,Low
P101_Exp5,34,F,3,18,69,9,1,13,1,1455.2216740567,210,0,847,463,0,1677,187,10,8,437,791,0,81,0,81,14,Low
P101_Exp5,34,F,3,18,70,12,4,16,1,5208.34643539365,2542,206,1380,790,0,397,43,17,9,1563,791,241,245,158,227,14,Low
P101_Exp5,34,F,3,18,71,10,2,14,1,2012.811361481,273,0,1262,960,0,863,180,5,5,604,795,68,163,65,157,14,Low
P101_Exp5,34,F,3,18,72,11,3,15,1,831.042943895227,110,0,454,573,0,186,227,3,6,249,794,0,445,0,445,14,Low
P102_Exp5,30,F,1,1,1,4,4,8,7,14967.3561372465,3092,0,7399,390,0,1573,293,87,14,4491,794,778,102,709,100,12,Low
P102_Exp5,30,F,1,1,2,1,1,5,1,1710.94970984905,298,707,925,560,0,829,229,8,19,513,796,42,40,40,32,12,Low
P102_Exp5,30,F,1,1,3,3,3,7,3,5085.37366364362,633,0,3325,713,0,1353,217,20,10,1525,794,145,74,139,53,12,Low
P102_Exp5,30,F,1,1,4,2,2,6,1,3182.54622129552,598,203,1859,397,173,1145,320,14,7,955,794,47,160,47,141,12,Low
P102_Exp5,30,F,1,2,5,1,1,5,2,6288.69317456974,2182,390,2330,399,0,705,200,33,10,1887,792,188,212,180,201,12,Low
P102_Exp5,30,F,1,2,6,4,4,8,2,3169.00654882556,890,504,1827,463,0,339,210,13,20,951,792,55,176,49,174,12,Low
P102_Exp5,30,F,1,2,7,2,2,6,3,5061.11668378253,732,475,3008,317,0,882,253,22,14,1519,795,177,198,167,198,12,Low
P102_Exp5,30,F,1,2,8,3,3,7,2,2590.01680619258,177,915,1605,263,0,563,300,10,18,777,791,85,124,85,115,12,Low
P102_Exp5,30,F,1,3,9,2,2,6,1,4639.24542373661,1942,288,1780,770,0,447,223,25,17,1392,791,124,197,116,186,12,Low
P102_Exp5,30,F,1,3,10,4,4,8,2,4904.87072373253,2325,640,1993,629,0,376,270,19,15,1472,792,72,169,48,152,12,Low
P102_Exp5,30,F,1,3,11,3,3,7,2,3623.39751316085,373,709,2646,639,0,131,310,11,28,1087,792,58,203,58,202,12,Low
P102_Exp5,30,F,1,3,12,1,1,5,1,953.414123088805,316,127,403,527,0,883,303,8,11,286,792,41,156,39,156,12,Low
P102_Exp5,30,F,1,4,13,2,2,6,1,6778.0963990208,1831,260,2700,333,0,839,220,42,10,2034,789,297,200,291,196,12,Low
P102_Exp5,30,F,1,4,14,3,3,7,2,6534.06827179515,3958,886,1741,694,0,234,363,24,16,1960,794,123,121,117,108,12,Low
P102_Exp5,30,F,1,4,15,4,4,8,1,2067.34508671707,1043,1121,893,672,0,147,320,4,13,620,793,0,132,0,117,12,Low
P102_Exp5,30,F,1,4,16,1,1,5,1,1715.60842553845,167,349,1321,206,0,0,NA,8,12,515,793,0,509,0,473,12,Low
P102_Exp5,30,F,1,5,17,2,2,6,1,1928.69677559156,220,482,1144,330,0,0,NA,13,16,579,795,56,411,33,393,12,Low
P102_Exp5,30,F,1,5,18,1,1,5,3,11887.6340303414,5955,834,3219,341,0,147,226,57,15,3567,792,331,288,312,285,12,Low
P102_Exp5,30,F,1,5,19,3,3,7,1,1173.98099394177,453,1546,647,336,0,0,NA,4,10,352,792,0,149,0,115,12,Low
P102_Exp5,30,F,1,5,20,4,4,8,1,882.372442111773,347,177,457,1153,0,0,NA,3,16,264,794,0,205,0,197,12,Low
P102_Exp5,30,F,1,6,21,3,3,7,1,10044.1453737749,3540,486,4326,923,0,0,NA,44,12,3014,791,351,267,339,260,12,Low
P102_Exp5,30,F,1,6,22,2,2,6,1,1035.83998320664,476,1076,503,247,0,0,NA,3,16,310,793,0,275,0,262,12,Low
P102_Exp5,30,F,1,6,23,1,1,5,1,822.549822316432,357,197,377,551,0,558,1639,4,15,247,792,0,217,0,202,12,Low
P102_Exp5,30,F,1,6,24,4,4,8,1,697.993710157789,170,1064,426,210,0,116,260,4,18,210,794,7,244,0,217,12,Low
P102_Exp5,30,F,2,7,25,8,4,12,1,4556.06437296319,2192,500,1255,566,0,902,230,24,9,1367,792,147,104,137,60,12,Low
P102_Exp5,30,F,2,7,26,5,1,9,1,1856.95238330936,357,0,986,166,0,2054,217,11,10,557,791,39,65,39,0,12,Low
P102_Exp5,30,F,2,7,27,6,2,10,1,2066.90818545576,1560,756,367,277,0,1016,233,7,13,620,794,0,90,0,84,12,Low
P102_Exp5,30,F,2,7,28,7,3,11,1,1299.17069826115,514,0,513,664,0,1434,166,6,9,389,794,46,72,44,67,12,Low
P102_Exp5,30,F,2,8,29,5,1,9,1,1500.22549054302,650,1120,678,180,0,429,220,5,11,450,794,19,197,0,182,12,Low
P102_Exp5,30,F,2,8,30,6,2,10,2,2612.2817040341,976,674,1119,190,0,1090,250,21,12,784,795,37,106,32,95,12,Low
P102_Exp5,30,F,2,8,31,8,4,12,1,2230.48632144855,1592,674,450,287,0,1021,327,14,12,670,794,0,97,0,92,12,Low
P102_Exp5,30,F,2,8,32,7,3,11,1,1329.04467528715,529,670,584,458,0,407,223,7,12,399,795,0,232,0,220,12,Low
P102_Exp5,30,F,2,9,33,6,2,10,1,4358.57433657384,2409,1470,747,336,0,0,NA,21,13,1307,792,236,180,218,156,12,Low
P102_Exp5,30,F,2,9,34,7,3,11,1,1355.50664119819,690,851,587,296,0,183,340,5,20,407,792,0,297,0,265,12,Low
P102_Exp5,30,F,2,9,35,8,4,12,1,2480.53933412666,1264,900,823,744,0,270,240,9,16,744,805,44,138,34,117,12,Low
P102_Exp5,30,F,2,9,36,5,1,9,1,1023.70445336328,393,873,566,370,0,240,203,2,22,307,806,0,240,0,236,12,Low
P102_Exp5,30,F,2,10,37,7,3,11,1,2895.01783231299,1727,824,830,196,0,470,234,6,11,869,795,64,257,55,247,12,Low
P102_Exp5,30,F,2,10,38,6,2,10,1,1655.16885337729,796,1630,499,197,0,207,233,7,8,497,792,56,129,45,117,12,Low
P102_Exp5,30,F,2,10,39,5,1,9,1,1136.14764873364,613,1619,326,310,0,0,NA,6,16,340,793,34,135,34,129,12,Low
P102_Exp5,30,F,2,10,40,8,4,12,1,1118.91735526206,427,0,600,557,0,1269,213,5,9,336,793,0,162,0,156,12,Low
P102_Exp5,30,F,2,11,41,5,1,9,1,2213.1148030594,814,823,997,473,0,784,263,11,10,664,794,58,109,58,108,12,Low
P102_Exp5,30,F,2,11,42,7,3,11,2,6895.46326680102,3591,1520,1065,216,0,314,253,23,9,2069,796,351,138,335,111,12,Low
P102_Exp5,30,F,2,11,43,6,2,10,1,820.995921543727,400,1837,363,183,0,287,220,3,12,247,792,0,55,0,55,12,Low
P102_Exp5,30,F,2,11,44,8,4,12,1,897.430175798036,347,0,453,1651,0,0,NA,5,8,269,795,0,155,0,143,12,Low
P102_Exp5,30,F,2,12,45,7,3,11,1,3585.05345427147,23,896,130,247,0,177,413,2,24,1076,793,977,276,965,258,12,Low
P102_Exp5,30,F,2,12,46,5,1,9,1,933.383650933138,305,302,492,562,0,0,NA,5,19,280,793,0,362,0,319,12,Low
P102_Exp5,30,F,2,12,47,6,2,10,1,955.145088338213,400,1928,494,247,0,0,NA,3,10,286,792,0,97,0,93,12,Low
P102_Exp5,30,F,2,12,48,8,4,12,1,864.226533303736,97,677,526,193,0,784,240,6,11,259,795,19,168,0,154,12,Low
P102_Exp5,30,F,3,13,49,11,3,15,1,4670.10541522905,2366,141,1183,163,0,2003,213,25,9,1402,792,190,32,181,31,12,Low
P102_Exp5,30,F,3,13,50,12,4,16,3,3974.44170290782,576,490,2857,297,0,1234,677,12,15,1193,791,61,98,37,96,12,Low
P102_Exp5,30,F,3,13,51,10,2,14,1,1526.38623351413,140,490,1133,273,0,1252,313,9,12,458,795,0,70,0,67,12,Low
P102_Exp5,30,F,3,13,52,9,1,13,1,2498.10242347939,1299,671,1003,207,0,1410,253,9,10,750,794,0,38,0,32,12,Low
P102_Exp5,30,F,3,14,53,10,2,14,1,1281.40110479671,558,349,513,313,0,167,350,7,9,385,794,4,471,0,437,12,Low
P102_Exp5,30,F,3,14,54,12,4,16,1,1595.13887614867,490,483,1017,792,0,203,264,4,10,478,793,0,227,0,215,12,Low
P102_Exp5,30,F,3,14,55,11,3,15,1,2141.14726687058,1230,1500,457,280,0,180,320,11,9,643,791,61,112,45,110,12,Low
P102_Exp5,30,F,3,14,56,9,1,13,1,828.702279523895,384,393,370,557,0,260,253,3,18,248,795,0,262,0,253,12,Low
P102_Exp5,30,F,3,15,57,12,4,16,1,1779.20443864332,867,576,556,360,0,0,NA,14,15,534,795,54,445,48,425,12,Low
P102_Exp5,30,F,3,15,58,11,3,15,1,1742.93011414466,780,1950,689,370,0,0,NA,6,8,523,790,42,62,42,46,12,Low
P102_Exp5,30,F,3,15,59,9,1,13,1,2612.50783457035,1694,1365,523,300,0,0,NA,12,19,784,800,52,228,45,220,12,Low
P102_Exp5,30,F,3,15,60,10,2,14,1,815.005595663933,294,0,473,227,0,1752,376,2,8,245,794,0,127,0,94,12,Low
P102_Exp5,30,F,3,16,61,9,1,13,1,2863.40051685693,1749,1465,708,0,0,0,NA,12,23,859,794,34,216,29,205,12,Low
P102_Exp5,30,F,3,16,62,12,4,16,1,1175.54470792675,616,1130,463,234,0,0,NA,7,34,353,791,0,150,0,147,12,Low
P102_Exp5,30,F,3,16,63,11,3,15,1,2524.96203780356,1043,1519,974,367,0,0,NA,8,21,758,796,88,135,86,131,12,Low
P102_Exp5,30,F,3,16,64,10,2,14,1,731.382523694265,142,661,383,290,0,954,426,6,16,219,794,0,114,0,112,12,Low
P102_Exp5,30,F,3,17,65,9,1,13,1,1181.69503182708,554,1451,557,354,0,0,NA,3,25,355,794,0,179,0,159,12,Low
P102_Exp5,30,F,3,17,66,11,3,15,1,1546.43505211061,429,1962,653,337,0,0,NA,12,15,464,794,53,54,53,54,12,Low
P102_Exp5,30,F,3,17,67,10,2,14,1,1016.42518343215,446,1712,507,446,0,0,NA,5,26,305,794,0,58,0,53,12,Low
P102_Exp5,30,F,3,17,68,12,4,16,1,883.80858434175,266,1527,483,257,0,410,296,6,13,266,793,0,63,0,58,12,Low
P102_Exp5,30,F,3,18,69,9,1,13,1,1134.71150650275,152,376,400,92,0,300,407,18,20,341,793,2,379,0,375,12,Low
P102_Exp5,30,F,3,18,70,11,3,15,1,1580.45788446816,943,126,454,377,0,50,2593,3,8,474,794,41,428,41,418,12,Low
P102_Exp5,30,F,3,18,71,12,4,16,1,1034.11755118577,333,1401,503,463,0,340,664,4,18,310,794,15,39,0,38,12,Low
P102_Exp5,30,F,3,18,72,10,2,14,1,843.85643868336,170,0,373,287,0,1067,316,7,13,253,795,0,294,0,276,12,Low
P103_Exp5,19,F,1,1,1,1,1,5,4,4727.12552783742,244,0,3516,653,0,586,217,24,8,1419,790,263,113,0,81,16,Low
P103_Exp5,19,F,1,1,2,2,2,6,1,1891.60745622667,408,799,823,1005,0,299,147,12,10,568,791,12,34,0,0,16,Low
P103_Exp5,19,F,1,1,3,3,3,7,1,1731.1937788827,404,1113,1193,519,0,803,170,5,6,519,799,2,21,0,0,16,Low
P103_Exp5,19,F,1,1,4,4,4,8,1,3369.27260866014,373,0,2496,393,0,1847,260,10,13,1011,793,63,156,40,0,16,Low
P103_Exp5,19,F,1,2,5,2,2,6,1,3627.51289701646,1423,417,1641,458,0,699,204,13,11,1089,790,66,71,0,0,16,Low
P103_Exp5,19,F,1,2,6,1,1,5,1,2293.90905805576,199,0,1916,650,0,1436,970,6,6,688,790,7,108,0,62,16,Low
P103_Exp5,19,F,1,2,7,3,3,7,1,3149.5917455677,1063,376,1453,429,0,216,234,23,10,945,794,100,278,0,224,16,Low
P103_Exp5,19,F,1,2,8,4,4,8,1,939.227966698127,290,330,567,580,0,187,220,3,6,282,790,2,413,0,398,16,Low
P103_Exp5,19,F,1,3,9,2,2,6,1,1184.93667651001,480,944,567,1240,0,237,263,4,10,355,793,4,8,0,0,16,Low
P103_Exp5,19,F,1,3,10,1,1,5,1,1165.50805778206,150,237,749,1878,0,207,260,4,12,350,794,0,2,0,0,16,Low
P103_Exp5,19,F,1,3,11,4,4,8,1,4968.98102577961,2059,323,2013,1682,0,213,283,23,14,1491,798,104,122,0,0,16,Low
P103_Exp5,19,F,1,3,12,3,3,7,1,893.471129071258,196,589,653,214,0,1357,443,3,7,268,796,0,60,0,57,16,Low
P103_Exp5,19,F,1,4,13,2,2,6,1,4345.00902183208,1466,457,2464,424,0,1026,206,13,8,1304,795,20,0,0,0,16,Low
P103_Exp5,19,F,1,4,14,1,1,5,1,1277.86687965818,113,103,869,1996,0,223,320,3,8,383,795,56,8,48,0,16,Low
P103_Exp5,19,F,1,4,15,3,3,7,1,1341.59314161479,486,936,620,636,0,837,1160,6,9,403,791,0,4,0,0,16,Low
P103_Exp5,19,F,1,4,16,4,4,8,1,731.271431917776,217,700,450,0,0,1559,253,3,5,219,799,0,49,0,44,16,Low
P103_Exp5,19,F,1,5,17,1,1,5,1,1053.43510147668,0,390,940,1210,0,522,774,3,9,316,793,23,4,0,0,16,Low
P103_Exp5,19,F,1,5,18,4,4,8,1,2022.5449800937,713,0,923,767,0,1622,237,13,7,607,791,11,0,0,0,16,Low
P103_Exp5,19,F,1,5,19,2,2,6,1,1361.80767732549,203,0,1000,1348,0,438,300,4,8,409,800,2,185,0,166,16,Low
P103_Exp5,19,F,1,5,20,3,3,7,1,677.462145211393,203,0,384,367,0,1433,240,3,8,203,795,0,84,0,74,16,Low
P103_Exp5,19,F,1,6,21,2,2,6,1,1007.9893026541,163,657,656,393,0,811,220,4,9,303,791,51,2,31,0,16,Low
P103_Exp5,19,F,1,6,22,3,3,7,1,1292.06543846885,389,0,849,1633,0,469,1144,3,12,388,790,0,67,0,56,16,Low
P103_Exp5,19,F,1,6,23,1,1,5,1,1443.75722930545,180,0,1000,1404,0,714,393,5,9,434,791,0,30,0,0,16,Low
P103_Exp5,19,F,1,6,24,4,4,8,1,822.452735113984,327,0,434,1404,0,857,1496,3,7,247,791,0,37,0,0,16,Low
P103_Exp5,19,F,2,7,25,7,3,11,1,4664.90966008041,1140,394,3185,1297,0,469,224,16,11,1400,794,57,29,0,0,16,Low
P103_Exp5,19,F,2,7,26,5,1,9,1,2393.10270381884,650,0,1486,1517,0,635,257,8,10,718,791,11,12,0,0,16,Low
P103_Exp5,19,F,2,7,27,6,2,10,1,1196.63113827028,240,0,890,203,0,2179,233,4,6,359,794,0,39,0,0,16,Low
P103_Exp5,19,F,2,7,28,8,4,12,1,1025.67499474117,194,546,709,1266,0,543,500,5,8,308,791,0,0,0,0,16,Low
P103_Exp5,19,F,2,8,29,7,3,11,1,1260.91803807412,127,0,669,319,0,2087,180,4,12,378,796,111,24,84,0,16,Low
P103_Exp5,19,F,2,8,30,8,4,12,1,2342.31633883883,506,0,1506,110,167,2080,70,6,8,702,791,0,22,0,0,16,Low
P103_Exp5,19,F,2,8,31,5,1,9,1,2419.8938542740502,503,0,1739,839,0,1501,223,5,10,726,793,0,6,0,0,16,Low
P103_Exp5,19,F,2,8,32,6,2,10,1,1310.09246257872,246,0,838,1075,0,1328,220,4,7,393,790,2,13,0,0,16,Low
P103_Exp5,19,F,2,9,33,7,3,11,1,2454.88593323807,653,713,1420,501,0,553,230,9,12,737,792,2,41,0,36,16,Low
P103_Exp5,19,F,2,9,34,5,1,9,1,2176.76220123303,464,0,1547,1246,0,0,NA,7,8,653,796,0,65,0,46,16,Low
P103_Exp5,19,F,2,9,35,8,4,12,1,1731.32135172636,436,0,1143,1351,0,374,1079,5,9,519,794,0,117,0,105,16,Low
P103_Exp5,19,F,2,9,36,6,2,10,1,1169.96670732806,0,0,550,536,314,370,386,3,5,351,798,2,46,0,46,16,Low
P103_Exp5,19,F,2,10,37,5,1,9,1,2143.21011673928,317,0,1687,1606,0,712,237,8,8,643,790,0,0,0,0,16,Low
P103_Exp5,19,F,2,10,38,6,2,10,1,1540.77915007474,214,427,1199,1493,0,534,237,6,8,463,791,2,7,0,0,16,Low
P103_Exp5,19,F,2,10,39,8,4,12,1,1067.43867436853,233,383,740,989,0,969,246,4,11,320,793,6,2,0,0,16,Low
P103_Exp5,19,F,2,10,40,7,3,11,1,797.814963058045,284,86,177,413,237,1483,374,6,7,240,794,0,50,0,41,16,Low
P103_Exp5,19,F,2,11,41,6,2,10,1,1711.11108266632,274,0,952,1149,0,680,227,10,9,513,795,0,77,0,65,16,Low
P103_Exp5,19,F,2,11,42,5,1,9,1,1270.40578830838,0,0,1217,233,0,2077,530,2,6,381,793,0,2,0,0,16,Low
P103_Exp5,19,F,2,11,43,8,4,12,1,1472.79690446067,197,0,1003,664,186,1142,1127,4,7,442,791,0,16,0,0,16,Low
P103_Exp5,19,F,2,11,44,7,3,11,1,953.126153329322,0,0,717,2436,0,90,2550,3,5,286,793,0,0,0,0,16,Low
P103_Exp5,19,F,2,12,45,8,4,12,1,1512.33808595498,240,257,922,1544,0,150,240,7,10,454,794,0,111,0,104,16,Low
P103_Exp5,19,F,2,12,46,5,1,9,1,2183.69252128741,300,0,1762,2055,0,237,2413,6,5,656,798,4,101,0,89,16,Low
P103_Exp5,19,F,2,12,47,7,3,11,1,2129.63534220034,480,0,1326,1740,0,673,356,9,5,639,795,1,28,0,26,16,Low
P103_Exp5,19,F,2,12,48,6,2,10,1,473.147196448735,163,0,240,196,0,2420,223,2,3,142,797,2,4,0,0,16,Low
P103_Exp5,19,F,3,13,49,10,2,14,1,2172.20755205562,373,0,1262,667,0,1453,217,8,9,651,792,160,70,44,0,16,Low
P103_Exp5,19,F,3,13,50,12,4,16,1,1696.76831107608,457,0,1014,569,0,1120,146,9,10,509,795,20,40,0,0,16,Low
P103_Exp5,19,F,3,13,51,11,3,15,1,1423.77095938627,216,0,763,80,0,1690,140,5,9,427,791,53,142,40,131,16,Low
P103_Exp5,19,F,3,13,52,9,1,13,1,1284.17896208612,214,0,850,970,0,1053,250,5,13,385,799,2,4,0,0,16,Low
P103_Exp5,19,F,3,14,53,12,4,16,1,1511.49883584458,427,0,643,1149,0,756,234,7,12,453,795,43,27,0,0,16,Low
P103_Exp5,19,F,3,14,54,10,2,14,1,862.822500094808,230,430,413,937,0,696,260,4,10,259,800,0,2,0,0,16,Low
P103_Exp5,19,F,3,14,55,9,1,13,1,1766.60868288945,420,0,1263,190,0,2382,224,3,6,530,793,0,0,0,0,16,Low
P103_Exp5,19,F,3,14,56,11,3,15,1,1090.90909090901,266,646,273,197,0,1536,480,7,9,328,791,5,0,0,0,16,Low
P103_Exp5,19,F,3,15,57,12,4,16,1,1221.69386869518,193,0,671,955,153,909,147,9,11,367,792,25,17,0,0,16,Low
P103_Exp5,19,F,3,15,58,11,3,15,1,1328.0670068898,237,0,763,204,0,2113,227,5,6,399,795,0,70,0,66,16,Low
P103_Exp5,19,F,3,15,59,9,1,13,1,1166.77269292541,164,0,547,0,177,536,227,6,8,350,793,0,239,0,185,16,Low
P103_Exp5,19,F,3,15,60,10,2,14,1,1083.11648083236,130,784,709,710,0,691,1283,5,9,325,814,18,40,0,40,16,Low
P103_Exp5,19,F,3,16,61,12,4,16,1,1008.60114030456,147,0,505,1550,0,578,166,9,10,303,791,5,43,0,38,16,Low
P103_Exp5,19,F,3,16,62,9,1,13,1,2530.74142861988,778,367,1277,453,0,1560,313,10,8,760,794,30,23,0,0,16,Low
P103_Exp5,19,F,3,16,63,10,2,14,1,1026.24672587899,213,0,340,826,110,893,293,4,11,308,791,26,95,0,33,16,Low
P103_Exp5,19,F,3,16,64,11,3,15,1,901.63493772161,167,193,656,466,0,1758,260,4,12,270,793,22,36,0,0,16,Low
P103_Exp5,19,F,3,17,65,12,4,16,1,1286.66769919619,202,0,816,567,0,1280,263,5,8,386,793,1,96,0,63,16,Low
P103_Exp5,19,F,3,17,66,10,2,14,1,1559.40393188939,150,0,1080,1623,0,93,2537,4,6,468,790,3,0,0,0,16,Low
P103_Exp5,19,F,3,17,67,9,1,13,1,1597.4095459469,207,0,1060,474,0,1590,710,4,9,480,794,1,89,0,75,16,Low
P103_Exp5,19,F,3,17,68,11,3,15,1,929.333178027264,142,0,699,307,0,1411,253,5,4,279,794,0,250,0,245,16,Low
P103_Exp5,19,F,3,18,69,9,1,13,1,1877.22457812379,330,0,1274,1291,0,0,NA,7,10,564,790,0,81,0,46,16,Low
P103_Exp5,19,F,3,18,70,12,4,16,1,1238.49679083924,296,240,644,1333,0,483,160,4,7,372,792,2,73,0,54,16,Low
P103_Exp5,19,F,3,18,71,11,3,15,1,585.149753025689,327,0,210,1510,0,510,1383,3,6,176,793,0,38,0,38,16,Low
P103_Exp5,19,F,3,18,72,10,2,14,1,852.991284513337,150,360,447,934,0,1124,336,3,7,256,797,44,0,39,0,16,Low
P104_Exp5,37,F,1,1,1,2,2,6,2,13019.2002710164,4902,729,3958,294,177,833,213,52,17,3906,799,651,51,630,48,22,High
P104_Exp5,37,F,1,1,2,1,1,5,3,6935.74793420339,477,463,5136,363,0,1592,243,27,9,2081,803,148,0,119,0,22,High
P104_Exp5,37,F,1,1,3,4,4,8,2,5059.66671630176,2271,436,2096,688,0,1167,240,16,9,1518,791,20,0,0,0,22,High
P104_Exp5,37,F,1,1,4,3,3,7,1,2828.14304652038,1566,778,367,541,0,943,277,10,13,849,795,47,23,47,0,22,High
P104_Exp5,37,F,1,2,5,1,1,5,1,5306.79815288977,3211,570,1061,1864,0,0,NA,25,7,1592,791,193,0,46,0,22,High
P104_Exp5,37,F,1,2,6,2,2,6,1,3608.57277316995,2696,1459,546,373,0,507,900,11,7,1083,792,57,6,54,0,22,High
P104_Exp5,37,F,1,2,7,4,4,8,3,8572.46853252173,2663,795,4598,317,0,1147,224,28,13,2572,792,14,0,0,0,22,High
P104_Exp5,37,F,1,2,8,3,3,7,1,2015.0624912269,680,310,794,1426,0,360,216,11,18,605,799,0,0,0,0,22,High
P104_Exp5,37,F,1,3,9,2,2,6,1,2488.9658494501,800,1803,1326,143,0,296,223,10,7,747,792,31,8,31,0,22,High
P104_Exp5,37,F,1,3,10,4,4,8,1,2872.56465974247,1206,993,1250,1179,0,170,263,12,15,862,801,65,0,60,0,22,High
P104_Exp5,37,F,1,3,11,1,1,5,1,2903.31811710098,1656,370,1007,187,0,1543,237,7,9,872,792,2,0,0,0,22,High
P104_Exp5,37,F,1,3,12,3,3,7,1,2600.19652107349,972,504,1126,620,0,534,684,12,13,780,794,2,0,0,0,22,High
P104_Exp5,37,F,1,4,13,1,1,5,1,1694.4523969725701,837,1439,538,313,0,177,226,4,10,508,795,19,50,0,50,22,High
P104_Exp5,37,F,1,4,14,3,3,7,1,1422.38505586511,374,1817,920,198,0,0,NA,6,12,427,792,0,99,0,49,22,High
P104_Exp5,37,F,1,4,15,4,4,8,1,1354.72864433314,300,2156,864,304,0,0,NA,7,4,406,792,2,42,0,40,22,High
P104_Exp5,37,F,1,4,16,2,2,6,1,1431.74220667652,343,1520,663,184,0,327,219,7,12,430,794,0,138,0,114,22,High
P104_Exp5,37,F,1,5,17,1,1,5,1,1425.55943013144,266,2093,684,0,0,430,2166,6,4,428,791,0,0,0,0,22,High
P104_Exp5,37,F,1,5,18,3,3,7,1,1580.93865052388,627,0,700,223,0,2137,270,4,6,475,794,58,8,43,0,22,High
P104_Exp5,37,F,1,5,19,2,2,6,1,1456.57485869992,451,0,866,47,0,2495,73,6,7,437,797,0,0,0,0,22,High
P104_Exp5,37,F,1,5,20,4,4,8,1,1496.93506484641,217,0,1106,0,0,1998,3,4,11,449,794,0,34,0,0,22,High
P104_Exp5,37,F,1,6,21,2,2,6,1,1649.67579996141,284,0,902,293,180,1937,244,10,8,495,794,0,7,0,0,22,High
P104_Exp5,37,F,1,6,22,1,1,5,1,1338.63704144892,689,0,527,143,0,1107,186,3,4,401,793,3,382,0,381,22,High
P104_Exp5,37,F,1,6,23,4,4,8,1,1936.36019590667,490,133,1218,297,0,1885,76,5,8,581,793,9,14,0,0,22,High
P104_Exp5,37,F,1,6,24,3,3,7,1,1518.96581958385,0,318,1158,133,0,1853,214,10,12,456,792,30,31,0,0,22,High
P104_Exp5,37,F,2,7,25,7,3,11,1,5640.07118448967,2400,0,1830,577,0,1686,236,27,9,1692,792,199,45,160,40,22,High
P104_Exp5,37,F,2,7,26,5,1,9,1,1887.45179239072,773,0,893,54,0,2314,240,8,7,566,793,0,0,0,0,22,High
P104_Exp5,37,F,2,7,27,6,2,10,1,1665.06895517432,606,0,930,94,0,2330,243,5,7,500,794,0,0,0,0,22,High
P104_Exp5,37,F,2,7,28,8,4,12,1,1401.36890623603,670,0,590,64,0,2315,250,5,9,420,794,4,0,0,0,22,High
P104_Exp5,37,F,2,8,29,5,1,9,1,1883.30291935767,886,0,0,0,0,1760,230,2,12,565,793,272,60,253,33,22,High
P104_Exp5,37,F,2,8,30,8,4,12,1,2267.94534785654,420,0,1464,230,0,1674,206,7,12,681,793,0,45,0,43,22,High
P104_Exp5,37,F,2,8,31,6,2,10,1,1958.18828562028,333,0,1045,117,0,2340,163,15,12,587,792,37,0,36,0,22,High
P104_Exp5,37,F,2,8,32,7,3,11,1,1514.12191218515,367,0,826,950,0,1166,260,9,13,455,794,0,9,0,0,22,High
P104_Exp5,37,F,2,9,33,6,2,10,1,1869.43337846014,667,446,849,885,119,694,220,7,21,561,793,0,0,0,0,22,High
P104_Exp5,37,F,2,9,34,5,1,9,1,1413.72336608242,337,0,881,157,0,2336,200,6,9,424,795,0,0,0,0,22,High
P104_Exp5,37,F,2,9,35,7,3,11,1,1825.10989777597,670,0,780,178,0,2320,244,12,7,548,791,0,0,0,0,22,High
P104_Exp5,37,F,2,9,36,8,4,12,1,1732.41262257511,540,0,990,150,0,2393,179,6,7,520,793,0,0,0,0,22,High
P104_Exp5,37,F,2,10,37,7,3,11,1,1411.09128075323,723,0,468,120,0,2343,213,8,8,423,795,0,0,0,0,22,High
P104_Exp5,37,F,2,10,38,6,2,10,1,1133.48499788162,420,0,573,160,0,2434,210,5,3,340,799,0,0,0,0,22,High
P104_Exp5,37,F,2,10,39,8,4,12,1,2276.54389148415,743,0,1408,187,0,2358,230,7,8,684,790,0,0,0,0,22,High
P104_Exp5,37,F,2,10,40,5,1,9,1,2219.76611176274,660,0,349,80,0,2075,233,15,18,666,793,2,0,0,0,22,High
P104_Exp5,37,F,2,11,41,7,3,11,1,1785.74595021951,181,270,371,0,0,1009,443,10,17,536,793,253,249,78,152,22,High
P104_Exp5,37,F,2,11,42,5,1,9,1,1533.4058091903,567,0,582,50,0,504,236,6,8,460,794,3,518,0,504,22,High
P104_Exp5,37,F,2,11,43,6,2,10,1,1603.05388457664,567,0,841,747,0,1430,303,7,13,481,793,21,33,0,28,22,High
P104_Exp5,37,F,2,11,44,8,4,12,1,1679.06948167638,363,0,1121,313,0,1882,613,9,11,504,800,0,77,0,48,22,High
P104_Exp5,37,F,2,12,45,6,2,10,1,1480.10106798074,533,0,600,300,0,831,247,6,14,444,795,0,304,0,250,22,High
P104_Exp5,37,F,2,12,46,8,4,12,1,1551.77792692029,424,0,942,1112,0,570,276,7,12,465,791,0,126,0,27,22,High
P104_Exp5,37,F,2,12,47,7,3,11,1,1021.78499672982,413,0,389,43,0,2209,93,5,14,307,792,0,36,0,31,22,High
P104_Exp5,37,F,2,12,48,5,1,9,1,874.18128663694,0,0,763,0,0,2336,4,3,4,262,791,0,0,0,0,22,High
P104_Exp5,37,F,3,13,49,11,3,15,1,2454.77604661528,873,736,1017,294,0,1082,137,9,13,736,792,37,34,0,30,22,High
P104_Exp5,37,F,3,13,50,9,1,13,1,1911.9862068319,894,0,823,410,0,182,267,8,12,574,795,0,443,0,414,22,High
P104_Exp5,37,F,3,13,51,12,4,16,1,2071.2830487987,0,0,1564,30,0,2346,237,11,5,621,792,16,0,0,0,22,High
P104_Exp5,37,F,3,13,52,10,2,14,1,1728.51590749769,1500,246,174,0,0,2283,310,3,5,519,795,0,0,0,0,22,High
P104_Exp5,37,F,3,14,53,12,4,16,1,1344.47464745881,410,638,760,127,0,289,247,7,16,404,795,0,263,0,240,22,High
P104_Exp5,37,F,3,14,54,10,2,14,1,1966.46853849506,446,2104,788,287,0,0,NA,8,5,590,793,173,44,168,44,22,High
P104_Exp5,37,F,3,14,55,11,3,15,1,1499.73866878554,0,1874,1000,659,0,0,NA,6,6,450,794,15,0,0,0,22,High
P104_Exp5,37,F,3,14,56,9,1,13,1,1626.76569235282,820,0,766,1788,0,723,1907,2,6,488,790,0,0,0,0,22,High
P104_Exp5,37,F,3,15,57,12,4,16,1,2271.16324176995,1417,134,673,602,0,1580,247,4,7,682,792,26,34,0,0,22,High
P104_Exp5,37,F,3,15,58,10,2,14,1,1728.39089517765,828,214,813,581,0,1230,193,5,13,519,795,0,15,0,0,22,High
P104_Exp5,37,F,3,15,59,11,3,15,1,1927.03120486703,810,0,969,307,0,1657,243,5,10,578,790,15,0,0,0,22,High
P104_Exp5,37,F,3,15,60,9,1,13,1,1485.30209248474,477,0,623,144,0,166,207,7,3,446,792,4,713,0,635,22,High
P104_Exp5,37,F,3,16,61,12,4,16,1,1444.02157379864,494,184,661,1116,0,464,1440,7,12,433,795,0,129,0,117,22,High
P104_Exp5,37,F,3,16,62,10,2,14,1,2511.08663012428,1170,0,640,1754,0,0,NA,8,15,754,795,108,174,102,119,22,High
P104_Exp5,37,F,3,16,63,11,3,15,1,1237.25162334677,444,0,583,1683,0,804,1739,5,6,371,793,19,14,0,0,22,High
P104_Exp5,37,F,3,16,64,9,1,13,1,1631.950930318,0,0,1496,889,0,1387,37,3,11,490,794,0,22,0,0,22,High
P104_Exp5,37,F,3,17,65,10,2,14,1,1877.36803413645,894,0,469,878,0,923,254,12,15,563,796,5,64,0,0,22,High
P104_Exp5,37,F,3,17,66,9,1,13,1,2021.00206974319,220,417,1447,417,0,1215,233,8,14,606,792,6,22,0,0,22,High
P104_Exp5,37,F,3,17,67,12,4,16,1,1633.26547966108,486,1687,943,180,0,310,226,6,11,490,794,8,62,0,0,22,High
P104_Exp5,37,F,3,17,68,11,3,15,1,811.890591606698,0,107,770,636,0,1379,286,4,13,243,795,0,45,0,29,22,High
P104_Exp5,37,F,3,18,69,12,4,16,1,1825.35906908925,373,1470,953,173,0,471,213,6,14,548,791,49,50,36,41,22,High
P104_Exp5,37,F,3,18,70,11,3,15,1,1643.70464836747,316,0,973,110,0,2079,150,6,7,493,790,0,32,0,0,22,High
P104_Exp5,37,F,3,18,71,10,2,14,1,1303.2709281506,670,833,467,1122,0,284,243,5,10,391,793,0,86,0,44,22,High
P104_Exp5,37,F,3,18,72,9,1,13,1,526.370559555744,520,1255,0,0,0,997,517,1,10,158,790,0,34,0,31,22,High
P105_Exp5,28,M,1,1,1,2,2,6,2,4894.3671256302,336,0,1394,530,490,1546,260,40,16,1469,790,17,5,0,0,16,Low
P105_Exp5,28,M,1,1,2,3,3,7,1,1084.77578112706,0,377,497,131,240,1660,150,8,14,325,804,7,27,0,26,16,Low
P105_Exp5,28,M,1,1,3,1,1,5,4,4938.31362354194,376,291,2593,234,0,796,137,23,8,1482,792,2,0,0,0,16,Low
P105_Exp5,28,M,1,1,4,4,4,8,4,3208.48431942068,133,0,1678,0,0,2077,17,17,32,963,791,2,38,0,0,16,Low
P105_Exp5,28,M,1,2,5,2,2,6,3,6413.18070671878,569,233,4149,1006,0,380,167,23,17,1924,795,3,5,0,0,16,Low
P105_Exp5,28,M,1,2,6,4,4,8,1,3287.11996412585,600,260,2391,1910,0,260,140,16,17,986,793,2,8,0,0,16,Low
P105_Exp5,28,M,1,2,7,3,3,7,1,2143.48275569228,351,0,1683,1450,0,483,4,6,6,643,796,0,47,0,39,16,Low
P105_Exp5,28,M,1,2,8,1,1,5,1,1892.45225298328,214,320,1577,1810,0,430,137,9,6,568,791,0,0,0,0,16,Low
P105_Exp5,28,M,1,3,9,2,2,6,1,2304.38880448037,197,233,1945,1786,0,508,4,11,13,691,792,10,2,0,0,16,Low
P105_Exp5,28,M,1,3,10,3,3,7,1,1032.28104937443,0,229,1019,1942,0,347,3,2,10,310,799,0,0,0,0,16,Low
P105_Exp5,28,M,1,3,11,1,1,5,1,1402.34000168039,186,1903,902,273,0,350,4,6,17,420,793,0,0,0,0,16,Low
P105_Exp5,28,M,1,3,12,4,4,8,1,693.354990849912,273,0,369,1459,0,473,194,4,7,208,791,0,71,0,48,16,Low
P105_Exp5,28,M,1,4,13,1,1,5,1,1608.57835639217,407,674,1106,1340,0,546,127,8,8,482,791,1,0,0,0,16,Low
P105_Exp5,28,M,1,4,14,3,3,7,1,1116.56957903961,187,0,896,2584,0,0,NA,4,4,335,794,0,0,0,0,16,Low
P105_Exp5,28,M,1,4,15,2,2,6,1,964.954161242531,130,1739,817,791,0,0,NA,4,14,289,795,0,2,0,0,16,Low
P105_Exp5,28,M,1,4,16,4,4,8,1,649.354306479836,0,879,619,1266,0,399,4,2,9,195,794,0,2,0,0,16,Low
P105_Exp5,28,M,1,5,17,1,1,5,1,1445.59402225241,210,244,1124,1563,0,453,7,8,13,433,795,1,76,0,75,16,Low
P105_Exp5,28,M,1,5,18,4,4,8,1,1855.64898097437,193,751,1563,1403,0,383,3,5,9,557,792,0,16,0,0,16,Low
P105_Exp5,28,M,1,5,19,3,3,7,1,1192.58635380174,0,0,1172,2083,0,0,NA,2,3,358,790,0,172,0,157,16,Low
P105_Exp5,28,M,1,5,20,2,2,6,1,766.225964359364,0,0,760,2623,0,0,NA,1,2,230,794,0,1,0,0,16,Low
P105_Exp5,28,M,1,6,21,4,4,8,1,1654.6253262386,380,880,467,963,0,277,3,7,7,497,792,0,55,0,54,16,Low
P105_Exp5,28,M,1,6,22,3,3,7,1,967.923749839429,0,467,953,1363,0,330,2309,2,13,290,793,0,1,0,0,16,Low
P105_Exp5,28,M,1,6,23,1,1,5,1,1148.3424703647,170,350,797,1856,0,390,3,4,4,345,794,0,1,0,0,16,Low
P105_Exp5,28,M,1,6,24,2,2,6,1,747.384863375373,200,0,524,2643,0,0,NA,3,1,224,794,0,0,0,0,16,Low
P105_Exp5,28,M,2,7,25,7,3,11,3,5541.03472242696,906,757,4156,530,0,0,NA,18,7,1663,791,2,40,0,38,16,Low
P105_Exp5,28,M,2,7,26,6,2,10,1,1114.37481413395,260,517,799,1083,0,753,153,6,10,334,795,2,66,0,62,16,Low
P105_Exp5,28,M,2,7,27,5,1,9,1,1200.75784242272,380,23,767,1032,0,406,147,3,8,361,793,1,44,0,43,16,Low
P105_Exp5,28,M,2,7,28,8,4,12,1,588.774272440787,214,686,330,1306,0,390,3,2,6,177,797,0,68,0,57,16,Low
P105_Exp5,28,M,2,8,29,5,1,9,1,2102.85955168638,743,497,985,1389,0,430,3,10,16,631,792,1,54,0,34,16,Low
P105_Exp5,28,M,2,8,30,8,4,12,1,1278.77439617259,210,1476,847,561,0,336,4,4,5,384,795,0,68,0,68,16,Low
P105_Exp5,28,M,2,8,31,7,3,11,1,1183.47620211807,390,0,754,1986,0,444,3,3,3,355,793,0,64,0,59,16,Low
P105_Exp5,28,M,2,8,32,6,2,10,1,907.175609779188,280,541,600,637,0,392,714,3,13,272,792,0,253,0,185,16,Low
P105_Exp5,28,M,2,9,33,8,4,12,1,2682.46393933805,497,886,833,1103,0,190,154,14,17,805,794,136,82,120,82,16,Low
P105_Exp5,28,M,2,9,34,6,2,10,1,922.902909385812,0,273,887,1577,0,0,NA,4,8,277,802,0,0,0,0,16,Low
P105_Exp5,28,M,2,9,35,5,1,9,1,1105.0082367683,0,395,766,1363,0,0,NA,10,13,331,793,0,135,0,130,16,Low
P105_Exp5,28,M,2,9,36,7,3,11,1,641.040738403717,263,0,350,0,0,918,3,3,3,193,789,0,329,0,329,16,Low
P105_Exp5,28,M,2,10,37,5,1,9,1,1144.29469924198,196,0,837,1124,0,1083,310,6,11,343,806,0,64,0,59,16,Low
P105_Exp5,28,M,2,10,38,8,4,12,1,1227.03443485443,350,430,656,519,0,1427,3,5,11,368,791,0,49,0,42,16,Low
P105_Exp5,28,M,2,10,39,6,2,10,1,1022.38882069378,377,315,634,637,0,1360,57,2,12,307,791,0,76,0,63,16,Low
P105_Exp5,28,M,2,10,40,7,3,11,1,497.474771088491,200,0,267,1447,0,960,3,3,8,150,794,0,57,0,50,16,Low
P105_Exp5,28,M,2,11,41,6,2,10,1,1242.39949585262,206,333,839,846,26,1176,3,10,15,373,796,3,45,0,36,16,Low
P105_Exp5,28,M,2,11,42,8,4,12,1,1851.46382371204,677,1341,354,523,0,640,3,4,15,556,793,0,2,0,0,16,Low
P105_Exp5,28,M,2,11,43,7,3,11,1,1430.41541387174,645,0,713,250,0,574,6,5,5,429,795,0,43,0,38,16,Low
P105_Exp5,28,M,2,11,44,5,1,9,1,896.092132339618,367,497,476,716,0,1030,0,4,8,269,795,1,102,0,102,16,Low
P105_Exp5,28,M,2,12,45,6,2,10,1,1040.03483293309,0,260,1020,1790,0,553,3,2,3,312,792,0,0,0,0,16,Low
P105_Exp5,28,M,2,12,46,7,3,11,1,513.760587159595,223,0,267,580,0,1423,3,3,4,154,795,0,167,0,163,16,Low
P105_Exp5,28,M,2,12,47,8,4,12,1,1722.27263980585,173,356,653,769,0,220,457,6,17,516,793,0,5,0,0,16,Low
P105_Exp5,28,M,2,12,48,5,1,9,1,321.413165773265,0,349,93,113,0,386,880,2,12,97,788,0,58,0,58,16,Low
P105_Exp5,28,M,3,13,49,12,4,16,1,4822.9728397846,2254,1284,1649,633,0,570,4,14,7,1447,792,159,0,154,0,16,Low
P105_Exp5,28,M,3,13,50,11,3,15,1,936.101365370632,263,0,624,1042,0,1346,3,3,6,281,793,0,13,0,0,16,Low
P105_Exp5,28,M,3,13,51,9,1,13,1,1431.85626167178,257,0,947,0,0,1342,590,5,7,429,794,3,2,0,0,16,Low
P105_Exp5,28,M,3,13,52,10,2,14,1,906.51257232457294,184,0,661,0,0,2604,4,4,8,272,792,0,0,0,0,16,Low
P105_Exp5,28,M,3,14,53,9,1,13,1,1617.06984378543,324,380,1230,1522,0,456,4,6,7,485,793,0,61,0,53,16,Low
P105_Exp5,28,M,3,14,54,10,2,14,1,1204.39644178441,392,736,769,380,0,1080,0,5,9,362,792,0,88,0,80,16,Low
P105_Exp5,28,M,3,14,55,11,3,15,1,776.427098519889,173,0,569,0,0,2626,3,3,1,233,790,0,0,0,0,16,Low
P105_Exp5,28,M,3,14,56,12,4,16,1,1006.8718669454,300,1766,656,179,0,590,147,5,6,302,792,0,1,0,0,16,Low
P105_Exp5,28,M,3,15,57,9,1,13,1,1917.78250238167,244,393,1531,1274,0,270,213,11,15,575,794,2,176,0,172,16,Low
P105_Exp5,28,M,3,15,58,10,2,14,1,1292.05775849823,220,405,721,417,0,640,616,5,14,388,791,77,78,77,71,16,Low
P105_Exp5,28,M,3,15,59,12,4,16,1,980.750153918962,243,543,689,622,0,480,3,3,15,294,795,0,110,0,108,16,Low
P105_Exp5,28,M,3,15,60,11,3,15,1,520.469468064221,0,1143,510,597,0,777,3,2,14,156,793,0,2,0,0,16,Low
P105_Exp5,28,M,3,16,61,9,1,13,1,1276.44309845891,407,89,778,70,0,310,60,9,27,383,790,0,9,0,0,16,Low
P105_Exp5,28,M,3,16,62,12,4,16,1,1390.78548604994,187,0,534,2017,0,353,97,8,21,418,791,1,6,0,0,16,Low
P105_Exp5,28,M,3,16,63,11,3,15,1,809.500464852135,0,197,133,277,44,20,100,10,17,243,790,76,78,0,71,16,Low
P105_Exp5,28,M,3,16,64,10,2,14,1,534.588240514495,270,1797,193,67,0,643,73,3,12,161,793,1,10,0,0,16,Low
P105_Exp5,28,M,3,17,65,11,3,15,1,3607.90934562829,1560,860,1443,933,0,490,163,12,16,1082,792,116,51,115,46,16,Low
P105_Exp5,28,M,3,17,66,9,1,13,1,1089.57874935095,137,211,617,1780,0,0,NA,12,45,327,792,4,52,0,0,16,Low
P105_Exp5,28,M,3,17,67,10,2,14,1,1186.29688461988,276,530,696,704,0,224,266,10,24,356,793,5,273,0,216,16,Low
P105_Exp5,28,M,3,17,68,12,4,16,1,879.012731257717,110,0,512,1230,0,1201,243,10,12,264,795,2,1,0,0,16,Low
P105_Exp5,28,M,3,18,69,10,2,14,1,1294.95140071958,590,0,590,1771,0,293,150,8,32,388,796,2,9,0,0,16,Low
P105_Exp5,28,M,3,18,70,9,1,13,1,910.992981786876,234,1369,546,117,0,437,126,8,28,274,795,1,0,0,0,16,Low
P105_Exp5,28,M,3,18,71,11,3,15,1,693.404483993618,235,0,413,1470,0,943,1687,7,26,208,790,2,8,0,0,16,Low
P105_Exp5,28,M,3,18,72,12,4,16,1,847.136586995475,0,161,169,1196,0,0,NA,10,34,254,795,0,123,0,111,16,Low
P116_Exp5,23,M,1,1,1,3,3,7,4,7218.95466666683,329,204,5914,922,0,987,273,20,9,2166,793,89,40,82,34,23,High
P116_Exp5,23,M,1,1,2,4,4,8,3,7434.90261333318,787,406,4743,347,273,1409,290,23,9,2231,798,133,0,128,0,23,High
P116_Exp5,23,M,1,1,3,2,2,6,1,6122.43712000009,694,1454,3648,303,0,377,250,18,9,1837,792,30,53,30,46,23,High
P116_Exp5,23,M,1,1,4,1,1,5,1,1777.00437333328,0,0,1640,1402,0,631,239,5,10,533,791,0,36,0,33,23,High
P116_Exp5,23,M,1,2,5,3,3,7,1,1543.8485333334,126,380,940,503,0,652,847,5,10,463,785,45,72,45,70,23,High
P116_Exp5,23,M,1,2,6,2,2,6,3,4750.34410666672,113,80,3799,994,0,610,243,15,10,1426,788,49,74,46,47,23,High
P116_Exp5,23,M,1,2,7,4,4,8,1,1756.4782933332,100,0,1442,1459,0,233,2386,7,13,527,787,0,98,0,96,23,High
P116_Exp5,23,M,1,2,8,1,1,5,2,2090.14400000001,0,140,1674,899,0,663,273,8,11,627,786,0,41,0,41,23,High
P116_Exp5,23,M,1,3,9,3,3,7,1,1529.40160000003,301,76,952,237,0,97,286,7,7,459,790,31,46,0,44,23,High
P116_Exp5,23,M,1,3,10,4,4,8,1,1190.73578666666,63,80,729,1681,0,0,NA,4,10,357,786,0,76,0,69,23,High
P116_Exp5,23,M,1,3,11,1,1,5,1,1124.06954666676,203,517,542,1160,0,0,NA,6,10,338,791,0,133,0,129,23,High
P116_Exp5,23,M,1,3,12,2,2,6,1,644.482560000142,0,90,606,1043,0,710,283,2,11,193,795,0,92,0,87,23,High
P116_Exp5,23,M,1,4,13,1,1,5,1,4046.0334933332,899,0,2195,1482,0,93,270,15,10,1214,795,42,166,36,164,23,High
P116_Exp5,23,M,1,4,14,2,2,6,1,2037.98442666653,116,97,1453,1519,0,0,NA,9,9,612,787,0,149,0,131,23,High
P116_Exp5,23,M,1,4,15,4,4,8,1,930.216533333351,206,417,573,1196,0,200,310,3,11,279,789,0,62,0,59,23,High
P116_Exp5,23,M,1,4,16,3,3,7,1,2568.69888000006,0,0,1421,640,0,469,720,2,4,771,793,303,416,303,399,23,High
P116_Exp5,23,M,1,5,17,1,1,5,1,7371.52042666662,1767,0,3448,1573,0,106,277,22,8,2212,787,330,170,326,170,23,High
P116_Exp5,23,M,1,5,18,3,3,7,1,1847.88309333317,640,0,906,1454,0,974,360,7,6,555,789,0,0,0,0,23,High
P116_Exp5,23,M,1,5,19,4,4,8,1,1873.53258666667,0,0,1667,2049,0,334,226,7,6,562,786,0,0,0,0,23,High
P116_Exp5,23,M,1,5,20,2,2,6,1,2354.48490666658,0,0,2033,1436,0,493,753,4,9,707,787,0,99,0,99,23,High
P116_Exp5,23,M,1,6,21,4,4,8,1,2850.50325333327,0,0,2553,2510,0,0,NA,8,4,855,789,6,0,0,0,23,High
P116_Exp5,23,M,1,6,22,1,1,5,1,1868.01408000019,0,0,1837,2376,0,0,NA,2,7,560,793,0,0,0,0,23,High
P116_Exp5,23,M,1,6,23,2,2,6,1,1101.27018666662,227,0,758,2188,0,0,NA,5,8,331,788,0,0,0,0,23,High
P116_Exp5,23,M,1,6,24,3,3,7,1,565.994666666711,0,466,534,656,0,540,817,2,8,169,795,0,172,0,124,23,High
P116_Exp5,23,M,2,7,25,7,3,11,3,3478.74133333312,0,297,2733,374,0,1181,267,8,11,1043,790,42,97,42,95,23,High
P116_Exp5,23,M,2,7,26,6,2,10,2,2679.13642666667,0,167,2257,796,0,920,280,8,9,804,790,0,59,0,56,23,High
P116_Exp5,23,M,2,7,27,5,1,9,1,3192.36522666665,100,344,2304,1560,493,297,427,8,7,958,786,0,36,0,36,23,High
P116_Exp5,23,M,2,7,28,8,4,12,2,2005.44639999998,0,84,1565,236,0,973,296,6,6,601,792,68,298,68,278,23,High
P116_Exp5,23,M,2,8,29,7,3,11,3,3410.8100266667,0,0,2925,213,0,486,266,8,5,1024,790,62,508,62,506,23,High
P116_Exp5,23,M,2,8,30,5,1,9,3,4813.62730666683,130,0,4031,1066,0,0,NA,15,6,1444,795,0,264,0,236,23,High
P116_Exp5,23,M,2,8,31,8,4,12,2,3183.83317333337,0,0,2967,623,0,406,350,6,9,955,789,0,372,0,357,23,High
P116_Exp5,23,M,2,8,32,6,2,10,1,2604.98986666653,247,0,1538,424,0,0,NA,8,4,782,792,85,541,85,521,23,High
P116_Exp5,23,M,2,9,33,8,4,12,3,4710.41877333346,0,0,3801,234,0,393,280,18,4,1414,790,0,491,0,465,23,High
P116_Exp5,23,M,2,9,34,5,1,9,2,3222.29333333325,0,160,1556,216,0,162,304,5,5,967,792,329,517,317,480,23,High
P116_Exp5,23,M,2,9,35,6,2,10,1,1807.33525333335,249,0,734,444,154,170,1950,7,3,542,786,110,557,104,557,23,High
P116_Exp5,23,M,2,9,36,7,3,11,1,1123.96416000001,0,0,717,345,0,746,247,3,8,337,792,86,391,86,391,23,High
P116_Exp5,23,M,2,10,37,8,4,12,2,3202.00576000002,0,0,2936,293,0,815,353,8,7,961,788,0,339,0,339,23,High
P116_Exp5,23,M,2,10,38,5,1,9,1,2181.47498666667,0,0,403,353,153,293,104,4,4,655,794,388,470,388,438,23,High
P116_Exp5,23,M,2,10,39,7,3,11,1,2034.04032000003,126,0,1610,1431,0,173,323,7,7,610,794,0,171,0,169,23,High
P116_Exp5,23,M,2,10,40,6,2,10,1,1077.5931733333,0,0,997,601,0,707,484,4,6,323,790,0,309,0,309,23,High
P116_Exp5,23,M,2,11,41,5,1,9,1,1821.87520000002,174,0,1347,1491,0,0,NA,8,7,547,792,0,173,0,149,23,High
P116_Exp5,23,M,2,11,42,7,3,11,1,944.124586666703,176,0,656,2355,0,0,NA,6,9,283,790,0,0,0,0,23,High
P116_Exp5,23,M,2,11,43,8,4,12,1,3303.97951999998,0,0,3014,2100,0,77,270,9,10,991,793,54,0,49,0,23,High
P116_Exp5,23,M,2,11,44,6,2,10,1,2086.74645333326,0,0,2003,1420,0,507,987,4,9,626,792,0,101,0,101,23,High
P116_Exp5,23,M,2,12,45,5,1,9,1,1658.43669333344,0,0,1257,1927,0,80,300,5,9,498,796,10,32,0,32,23,High
P116_Exp5,23,M,2,12,46,7,3,11,1,6026.92863999982,2226,0,1326,1433,0,656,760,26,9,1808,791,222,22,126,0,23,High
P116_Exp5,23,M,2,12,47,6,2,10,2,3763.93045333316,483,203,2639,449,0,1397,307,15,9,1129,795,0,89,0,88,23,High
P116_Exp5,23,M,2,12,48,8,4,12,1,960.863146666725,0,0,673,643,0,206,330,2,4,288,795,49,480,49,480,23,High
P116_Exp5,23,M,3,13,49,9,1,13,4,9538.81386666671,931,217,7373,621,0,141,384,27,14,2862,792,53,91,53,91,23,High
P116_Exp5,23,M,3,13,50,10,2,14,2,3303.51957333323,0,0,3088,1949,0,510,314,7,7,991,793,0,0,0,0,23,High
P116_Exp5,23,M,3,13,51,11,3,15,1,1895.28319999999,190,747,1474,1113,0,393,427,8,10,568,795,0,0,0,0,23,High
P116_Exp5,23,M,3,13,52,12,4,16,1,3797.32437333337,0,330,3231,1033,0,510,1383,10,13,1140,794,47,0,46,0,23,High
P116_Exp5,23,M,3,14,53,10,2,14,1,4343.47349333325,137,145,3290,1410,0,444,433,13,12,1303,791,40,20,40,0,23,High
P116_Exp5,23,M,3,14,54,9,1,13,1,1213.0094933334,230,0,758,1613,0,269,257,6,10,364,795,0,54,0,51,23,High
P116_Exp5,23,M,3,14,55,12,4,16,1,1696.41386666672,263,270,1212,1280,0,147,2499,6,9,509,795,0,72,0,66,23,High
P116_Exp5,23,M,3,14,56,11,3,15,1,856.345173333466,97,0,610,1005,0,601,293,4,10,257,786,0,123,0,123,23,High
P116_Exp5,23,M,3,15,57,9,1,13,1,2085.01120000005,174,0,1543,1507,0,0,NA,9,9,626,793,0,151,0,151,23,High
P116_Exp5,23,M,3,15,58,11,3,15,2,6939.84213333329,914,114,5120,1602,0,203,1387,24,12,2082,787,0,0,0,0,23,High
P116_Exp5,23,M,3,15,59,10,2,14,1,1178.61205333338,110,0,720,2090,0,117,349,5,10,354,790,13,0,0,0,23,High
P116_Exp5,23,M,3,15,60,12,4,16,1,1414.00661333341,180,0,1087,2073,0,120,297,5,9,425,794,0,0,0,0,23,High
P116_Exp5,23,M,3,16,61,11,3,15,1,2049.81120000002,317,211,1473,1693,0,184,2393,8,10,615,789,0,0,0,0,23,High
P116_Exp5,23,M,3,16,62,10,2,14,1,1013.39690666669,83,0,676,681,0,451,1346,4,7,304,794,0,297,0,297,23,High
P116_Exp5,23,M,3,16,63,12,4,16,1,1190.80234666671,0,0,767,823,0,479,327,3,8,357,792,83,249,83,249,23,High
P116_Exp5,23,M,3,16,64,9,1,13,1,1275.58485333338,83,0,790,1343,0,403,253,6,11,382,791,0,43,0,43,23,High
P116_Exp5,23,M,3,17,65,10,2,14,1,3526.10474666653,1185,0,1686,1742,0,180,320,12,10,1058,786,42,63,42,63,23,High
P116_Exp5,23,M,3,17,66,11,3,15,1,1612.80554666678,0,0,1358,1596,0,723,1056,3,9,484,795,52,0,52,0,23,High
P116_Exp5,23,M,3,17,67,9,1,13,1,2217.15711999991,200,0,1376,2343,0,140,280,8,6,666,793,44,0,44,0,23,High
P116_Exp5,23,M,3,17,68,12,4,16,1,1555.38432000003,246,269,883,1203,0,461,2056,6,15,467,792,48,0,48,0,23,High
P116_Exp5,23,M,3,18,69,9,1,13,1,1779.87413333335,0,0,1490,2203,173,0,NA,5,11,534,794,0,0,0,0,23,High
P116_Exp5,23,M,3,18,70,10,2,14,1,7303.74954666672,907,0,4213,1279,0,390,2057,27,10,2192,787,179,118,170,113,23,High
P116_Exp5,23,M,3,18,71,11,3,15,1,2382.82794666679,94,63,1775,1368,0,320,1943,8,12,715,794,44,70,44,69,23,High
P116_Exp5,23,M,3,18,72,12,4,16,1,963.342079999848,147,0,513,1260,0,390,250,5,8,289,795,0,187,0,187,23,High
P117_Exp5,20,F,1,1,1,3,3,7,1,2524.18431999922,0,0,193,116,0,108,253,14,19,758,791,394,435,29,50,9,Low
P117_Exp5,20,F,1,1,2,4,4,8,1,2313.72928000019,43,0,44,10,20,140,1186,10,14,694,790,376,613,79,388,9,Low
P117_Exp5,20,F,1,1,3,1,1,5,2,4624.73984000007,24,0,473,104,57,30,204,40,12,1388,786,637,563,56,283,9,Low
P117_Exp5,20,F,1,1,4,2,2,6,1,763.1688533329,NA,NA,NA,NA,NA,NA,NA,NA,NA,229,790,229,790,229,790,9,Low
P117_Exp5,20,F,1,2,5,3,3,7,2,2427.30751999989,NA,NA,NA,NA,NA,NA,NA,NA,NA,728,786,728,786,728,786,9,Low
P117_Exp5,20,F,1,2,6,1,1,5,1,2390.55061333329,NA,NA,NA,NA,NA,NA,NA,NA,NA,717,787,717,787,717,787,9,Low
P117_Exp5,20,F,1,2,7,2,2,6,1,2226.75925333351,NA,NA,NA,NA,NA,NA,NA,NA,NA,668,790,668,790,668,790,9,Low
P117_Exp5,20,F,1,2,8,4,4,8,1,669.956266666304,NA,NA,NA,NA,NA,NA,NA,NA,NA,201,788,201,788,201,788,9,Low
P117_Exp5,20,F,1,3,9,2,2,6,1,1770.94741333349,NA,NA,NA,NA,NA,NA,NA,NA,NA,531,792,531,792,531,792,9,Low
P117_Exp5,20,F,1,3,10,3,3,7,1,2416.28629333263,NA,NA,NA,NA,NA,NA,NA,NA,NA,725,789,725,789,725,789,9,Low
P117_Exp5,20,F,1,3,11,4,4,8,1,1419.16032000063,NA,NA,NA,NA,NA,NA,NA,NA,NA,426,787,426,787,426,787,9,Low
P117_Exp5,20,F,1,3,12,1,1,5,1,1638.17344000017,NA,NA,NA,NA,NA,NA,NA,NA,NA,492,787,492,787,492,787,9,Low
P117_Exp5,20,F,1,4,13,2,2,6,1,2859.14709333338,NA,NA,NA,NA,NA,NA,NA,NA,NA,858,786,858,786,858,786,9,Low
P117_Exp5,20,F,1,4,14,4,4,8,1,1701.61493333308,NA,NA,NA,NA,NA,NA,NA,NA,NA,510,789,510,789,510,789,9,Low
P117_Exp5,20,F,1,4,15,1,1,5,1,1613.27488000006,NA,NA,NA,NA,NA,NA,NA,NA,NA,484,790,484,790,484,790,9,Low
P117_Exp5,20,F,1,4,16,3,3,7,1,2818.32917333304,NA,NA,NA,NA,NA,NA,NA,NA,NA,845,789,845,789,845,789,9,Low
P117_Exp5,20,F,1,5,17,1,1,5,1,1977.78986666708,NA,NA,NA,NA,NA,NA,NA,NA,NA,593,790,593,790,593,790,9,Low
P117_Exp5,20,F,1,5,18,2,2,6,2,4463.18719999999,NA,NA,NA,NA,NA,NA,NA,NA,NA,1339,790,1339,790,1339,790,9,Low
P117_Exp5,20,F,1,5,19,4,4,8,1,1248.67498666663,NA,NA,NA,NA,NA,NA,NA,NA,NA,375,789,375,789,375,789,9,Low
P117_Exp5,20,F,1,5,20,3,3,7,1,507.357013333603,NA,NA,NA,NA,NA,NA,NA,NA,NA,153,786,153,786,153,786,9,Low
P117_Exp5,20,F,1,6,21,2,2,6,1,3228.3281066666,NA,NA,NA,NA,NA,NA,NA,NA,NA,969,790,969,790,969,790,9,Low
P117_Exp5,20,F,1,6,22,4,4,8,1,1887.38901333363,NA,NA,NA,NA,NA,NA,NA,NA,NA,566,788,566,788,566,788,9,Low
P117_Exp5,20,F,1,6,23,3,3,7,1,2463.71839999938,NA,NA,NA,NA,NA,NA,NA,NA,NA,739,790,739,790,739,790,9,Low
P117_Exp5,20,F,1,6,24,1,1,5,1,1105.53685333343,NA,NA,NA,NA,NA,NA,NA,NA,NA,332,787,332,787,332,787,9,Low
P117_Exp5,20,F,2,7,25,8,4,12,1,2325.71221333365,NA,NA,NA,NA,NA,NA,NA,NA,NA,698,786,698,786,698,786,9,Low
P117_Exp5,20,F,2,7,26,5,1,9,1,3003.99061333337,NA,NA,NA,NA,NA,NA,NA,NA,NA,901,793,901,793,901,793,9,Low
P117_Exp5,20,F,2,7,27,6,2,10,1,1295.72181333333,NA,84,NA,0,NA,0,NA,NA,6,389,790,389,613,389,591,9,Low
P117_Exp5,20,F,2,7,28,7,3,11,1,1111.42784000003,0,0,0,0,0,218,186,1,22,333,796,329,570,310,167,9,Low
P117_Exp5,20,F,2,8,29,6,2,10,1,1572.00426666623,0,0,10,20,0,73,410,3,9,471,786,260,491,0,27,9,Low
P117_Exp5,20,F,2,8,30,8,4,12,1,3370.10005333377,0,NA,53,NA,10,NA,NA,16,NA,1011,788,775,703,233,528,9,Low
P117_Exp5,20,F,2,8,31,7,3,11,1,4127.89632000022,0,0,10,0,0,10,1833,7,7,1239,794,1096,671,849,494,9,Low
P117_Exp5,20,F,2,8,32,5,1,9,1,1341.11274666702,40,0,0,30,20,73,494,6,9,402,786,335,499,203,33,9,Low
P117_Exp5,20,F,2,9,33,7,3,11,2,7085.78261333332,10,0,0,10,146,63,1116,7,16,2126,789,1912,512,1611,253,9,Low
P117_Exp5,20,F,2,9,34,8,4,12,1,1116.54442666622,0,0,10,273,0,10,34,2,23,335,789,199,443,111,330,9,Low
P117_Exp5,20,F,2,9,35,5,1,9,3,9108.92330666684,NA,NA,NA,NA,NA,NA,NA,NA,NA,2733,786,2718,785,2698,785,9,Low
P117_Exp5,20,F,2,9,36,6,2,10,1,1802.68373333274,NA,NA,NA,NA,NA,NA,NA,NA,NA,541,792,541,792,541,792,9,Low
P117_Exp5,20,F,2,10,37,8,4,12,1,2280.0930133335,NA,NA,NA,NA,NA,NA,NA,NA,NA,684,795,684,795,684,795,9,Low
P117_Exp5,20,F,2,10,38,6,2,10,1,1526.68159999939,NA,NA,NA,NA,NA,NA,NA,NA,NA,458,786,458,786,458,786,9,Low
P117_Exp5,20,F,2,10,39,5,1,9,1,1647.78282666612,NA,NA,NA,NA,NA,NA,NA,NA,NA,494,794,494,794,494,794,9,Low
P117_Exp5,20,F,2,10,40,7,3,11,1,1137.6746666665,NA,NA,NA,NA,NA,NA,NA,NA,NA,342,787,342,787,342,787,9,Low
P117_Exp5,20,F,2,11,41,6,2,10,1,2263.09888000014,NA,NA,NA,NA,NA,NA,NA,NA,NA,679,795,679,795,679,795,9,Low
P117_Exp5,20,F,2,11,42,5,1,9,1,3176.39765333388,NA,NA,NA,NA,NA,NA,NA,NA,NA,953,791,953,791,953,791,9,Low
P117_Exp5,20,F,2,11,43,8,4,12,1,1444.4778666666,10,0,361,355,0,20,1346,25,20,434,790,14,249,0,0,9,Low
P117_Exp5,20,F,2,11,44,7,3,11,1,3614.21440000049,50,NA,30,NA,0,NA,NA,8,NA,1084,795,859,795,759,795,9,Low
P117_Exp5,20,F,2,12,45,6,2,10,1,2340.35967999989,0,NA,0,NA,80,NA,NA,5,NA,702,785,640,739,398,631,9,Low
P117_Exp5,20,F,2,12,46,8,4,12,1,1203.55199999995,NA,0,NA,0,NA,83,1953,NA,6,361,793,361,695,361,512,9,Low
P117_Exp5,20,F,2,12,47,7,3,11,1,5887.75765333321,0,0,34,50,92,213,4,20,25,1766,793,1481,466,1085,53,9,Low
P117_Exp5,20,F,2,12,48,5,1,9,1,3415.80458666613,56,17,20,103,0,182,1024,11,26,1025,794,629,464,182,52,9,Low
P117_Exp5,20,F,3,13,49,9,1,13,3,7023.2669866673,374,40,648,80,0,55,326,80,18,2108,791,343,414,133,201,9,Low
P117_Exp5,20,F,3,13,50,10,2,14,2,5344.19669333329,0,33,1190,209,0,57,447,82,22,1604,785,167,327,0,113,9,Low
P117_Exp5,20,F,3,13,51,12,4,16,2,2502.9294933338,0,131,107,0,0,30,497,6,21,751,788,489,272,277,222,9,Low
P117_Exp5,20,F,3,13,52,11,3,15,1,1479.45088000051,0,10,240,172,0,100,257,16,12,444,789,118,517,65,310,9,Low
P117_Exp5,20,F,3,14,53,9,1,13,4,5874.91327999942,0,0,804,123,0,0,NA,61,8,1762,787,319,686,33,678,9,Low
P117_Exp5,20,F,3,14,54,11,3,15,1,1618.51221333291,0,0,94,30,0,60,193,8,8,486,793,247,503,0,114,9,Low
P117_Exp5,20,F,3,14,55,10,2,14,1,2493.89909333331,0,0,10,10,233,40,80,22,11,748,786,480,571,93,294,9,Low
P117_Exp5,20,F,3,14,56,12,4,16,1,846.977279999919,30,10,0,235,0,40,246,5,23,254,789,138,323,21,87,9,Low
P117_Exp5,20,F,3,15,57,11,3,15,1,1479.33952000039,0,17,20,73,0,10,300,2,11,444,794,227,459,37,89,9,Low
P117_Exp5,20,F,3,15,58,9,1,13,1,2841.07221333306,0,21,197,133,20,30,407,20,15,852,786,266,377,26,78,9,Low
P117_Exp5,20,F,3,15,59,10,2,14,1,2956.19072000045,0,13,93,46,10,0,NA,14,6,887,787,517,455,31,159,9,Low
P117_Exp5,20,F,3,15,60,12,4,16,1,1273.68746666616,0,37,217,213,0,0,NA,17,24,382,792,6,384,0,168,9,Low
P117_Exp5,20,F,3,16,61,11,3,15,1,5481.34656000002,87,40,449,51,0,36,447,67,9,1645,794,415,439,309,137,9,Low
P117_Exp5,20,F,3,16,62,10,2,14,1,3264.7722666661102,36,30,30,70,0,0,NA,13,10,980,794,508,530,14,100,9,Low
P117_Exp5,20,F,3,16,63,9,1,13,1,1913.82741333291,0,0,153,27,10,0,NA,19,4,574,790,240,724,44,665,9,Low
P117_Exp5,20,F,3,16,64,12,4,16,1,849.757013333146,32,0,0,47,10,30,287,4,15,255,793,144,338,0,218,9,Low
P117_Exp5,20,F,3,17,65,10,2,14,1,1668.25045333371,26,50,0,101,83,10,493,12,12,501,786,312,428,85,193,9,Low
P117_Exp5,20,F,3,17,66,11,3,15,1,1119.26698666684,10,20,20,77,0,0,NA,7,20,336,792,129,253,0,196,9,Low
P117_Exp5,20,F,3,17,67,12,4,16,1,1182.6427733331,0,0,275,227,0,84,1283,14,26,355,789,5,94,0,0,9,Low
P117_Exp5,20,F,3,17,68,9,1,13,1,1970.05994666597,10,0,113,227,0,27,430,9,28,591,792,271,244,51,179,9,Low
P117_Exp5,20,F,3,18,69,11,3,15,1,1082.03391999996,14,0,83,609,0,0,NA,7,40,325,794,182,162,36,85,9,Low
P117_Exp5,20,F,3,18,70,12,4,16,1,2313.8103466672,90,0,129,67,0,20,1520,22,11,694,794,278,504,0,370,9,Low
P117_Exp5,20,F,3,18,71,9,1,13,1,1528.03455999947,20,0,40,303,0,0,NA,6,23,459,790,311,367,85,89,9,Low
P117_Exp5,20,F,3,18,72,10,2,14,1,1384.37546666682,0,0,221,77,0,0,NA,12,23,415,792,249,377,57,115,9,Low
P118_Exp5,19,F,1,1,1,4,4,8,3,9070.18581333432,1468,0,3144,221,57,636,213,65,30,2721,795,1688,250,832,160,22,High
P118_Exp5,19,F,1,1,2,2,2,6,1,5215.34208000048,881,0,2926,1610,114,227,266,41,26,1565,789,261,207,69,106,22,High
P118_Exp5,19,F,1,1,3,3,3,7,1,1314.11157333241,NA,20,NA,0,NA,1037,440,NA,23,394,789,391,330,391,268,22,High
P118_Exp5,19,F,1,1,4,1,1,5,4,7418.39061333303,328,0,4221,402,6,1291,234,116,27,2226,789,418,149,31,83,22,High
P118_Exp5,19,F,1,2,5,4,4,8,4,8258.20714666588,853,0,3653,99,140,133,593,93,5,2478,786,845,694,272,646,22,High
P118_Exp5,19,F,1,2,6,2,2,6,1,4619.21493333466,0,0,3298,635,0,303,243,40,33,1386,792,297,428,114,256,22,High
P118_Exp5,19,F,1,2,7,1,1,5,2,2101.05813333394,140,51,806,456,0,386,257,30,19,630,787,237,195,44,36,22,High
P118_Exp5,19,F,1,2,8,3,3,7,1,588.591359999555,0,0,95,181,0,659,267,6,27,177,787,97,241,52,129,22,High
P118_Exp5,19,F,1,3,9,4,4,8,1,1063.69066666593,247,212,663,861,0,190,233,5,29,319,789,34,368,1,207,22,High
P118_Exp5,19,F,1,3,10,3,3,7,1,1434.78997333477,0,32,1047,707,0,0,NA,6,27,431,793,103,424,92,163,22,High
P118_Exp5,19,F,1,3,11,2,2,6,1,883.459413335004,0,0,432,1190,0,782,276,6,36,265,793,132,84,78,0,22,High
P118_Exp5,19,F,1,3,12,1,1,5,1,189.135360000364,0,274,147,174,0,200,343,2,28,57,787,0,475,0,357,22,High
P118_Exp5,19,F,1,4,13,3,3,7,1,6117.55733333302,339,0,1999,32,103,0,NA,32,4,1836,792,1149,766,739,728,22,High
P118_Exp5,19,F,1,4,14,4,4,8,1,2339.49226666664,133,16,621,586,233,146,43,33,22,702,786,367,633,129,348,22,High
P118_Exp5,19,F,1,4,15,1,1,5,1,6657.97759999987,576,7,1766,120,210,204,370,42,18,1997,789,1146,674,897,485,22,High
P118_Exp5,19,F,1,4,16,2,2,6,1,939.366399999926,0,7,157,184,0,10,1993,4,13,281,787,230,727,160,574,22,High
P118_Exp5,19,F,1,5,17,1,1,5,1,2054.35349333311,120,0,302,279,0,0,NA,24,12,617,787,356,679,44,527,22,High
P118_Exp5,19,F,1,5,18,3,3,7,1,1735.96159999943,81,0,352,676,163,0,NA,25,41,521,787,117,247,0,0,22,High
P118_Exp5,19,F,1,5,19,2,2,6,1,1519.25845333244,0,NA,14,NA,0,NA,NA,4,NA,455,792,397,595,295,362,22,High
P118_Exp5,19,F,1,5,20,4,4,8,1,1717.61877333483,0,0,51,0,0,1072,347,8,14,516,793,460,567,345,357,22,High
P118_Exp5,19,F,1,6,21,3,3,7,1,2176.88746666681,109,0,180,0,57,10,1657,19,2,653,784,547,758,286,722,22,High
P118_Exp5,19,F,1,6,22,2,2,6,1,2574.84287999978,0,0,54,61,7,0,NA,8,5,772,786,721,724,625,675,22,High
P118_Exp5,19,F,1,6,23,1,1,5,1,733.646933333148,NA,0,NA,0,NA,846,1094,NA,4,220,792,220,527,220,478,22,High
P118_Exp5,19,F,1,6,24,4,4,8,1,650.421333331906,0,0,0,773,0,37,234,1,34,195,793,170,406,163,172,22,High
P118_Exp5,19,F,2,7,25,8,4,12,1,4950.1252266673,761,0,1143,0,167,995,323,62,40,1485,793,939,473,357,80,22,High
P118_Exp5,19,F,2,7,26,5,1,9,1,3203.9641600004,849,201,1372,131,0,1429,280,39,23,961,796,405,197,78,0,22,High
P118_Exp5,19,F,2,7,27,6,2,10,1,4534.14911999971,243,0,654,221,29,1687,214,27,13,1361,788,1218,251,905,129,22,High
P118_Exp5,19,F,2,7,28,7,3,11,1,555.934719999641,0,0,302,133,20,145,270,10,25,167,786,106,377,0,119,22,High
P118_Exp5,19,F,2,8,29,8,4,12,1,2168.34559999916,273,0,529,243,0,490,250,32,27,650,793,405,354,28,156,22,High
P118_Exp5,19,F,2,8,30,5,1,9,1,1116.56106666669,267,0,608,612,0,380,260,11,23,335,794,79,327,0,176,22,High
P118_Exp5,19,F,2,8,31,6,2,10,1,2148.00469333386,166,162,688,56,17,182,356,34,21,644,790,190,563,37,380,22,High
P118_Exp5,19,F,2,8,32,7,3,11,1,1539.58698666611,117,6,315,0,0,46,477,24,4,462,787,272,644,71,391,22,High
P118_Exp5,19,F,2,9,33,8,4,12,1,1200.64768000157,0,0,661,38,196,534,180,10,26,360,788,82,396,0,28,22,High
P118_Exp5,19,F,2,9,34,7,3,11,1,1373.39605333364,0,0,435,95,10,553,337,18,25,412,791,161,406,1,148,22,High
P118_Exp5,19,F,2,9,35,6,2,10,1,1938.78015999871,7,0,223,57,196,507,576,27,3,582,786,275,613,214,550,22,High
P118_Exp5,19,F,2,9,36,5,1,9,1,498.087680000026,NA,0,NA,183,NA,347,820,NA,14,149,789,145,438,145,327,22,High
P118_Exp5,19,F,2,10,37,6,2,10,3,17756.3225600006,377,20,1445,53,315,27,433,110,18,5328,787,4125,425,2329,225,22,High
P118_Exp5,19,F,2,10,38,5,1,9,1,1694.61077333472,118,0,652,138,223,160,273,25,26,509,794,68,332,0,69,22,High
P118_Exp5,19,F,2,10,39,7,3,11,1,1110.55146666695,0,24,104,30,13,264,204,13,18,333,785,201,570,40,150,22,High
P118_Exp5,19,F,2,10,40,8,4,12,1,1279.3753599999,27,23,7,13,0,579,273,6,47,384,790,331,299,219,122,22,High
P118_Exp5,19,F,2,11,41,7,3,11,1,1474.16277333286,30,79,406,397,39,207,440,11,14,442,791,283,552,192,445,22,High
P118_Exp5,19,F,2,11,42,5,1,9,1,948.500906666595,0,27,296,236,7,6,284,7,15,285,788,221,680,114,475,22,High
P118_Exp5,19,F,2,11,43,8,4,12,1,1346.27114666728,0,0,280,1536,0,223,410,7,26,404,789,345,241,262,91,22,High
P118_Exp5,19,F,2,11,44,6,2,10,1,383.944533332397,0,0,27,242,0,389,264,1,14,116,786,100,489,99,357,22,High
P118_Exp5,19,F,2,12,45,5,1,9,1,1754.1870933328,0,0,938,361,0,1896,144,18,10,526,792,166,11,151,0,22,High
P118_Exp5,19,F,2,12,46,7,3,11,1,1886.235306667,486,20,533,381,0,883,207,23,33,566,793,105,178,38,31,22,High
P118_Exp5,19,F,2,12,47,6,2,10,1,1846.86976000012,445,0,814,276,0,1766,177,20,9,554,789,83,58,0,52,22,High
P118_Exp5,19,F,2,12,48,8,4,12,1,698.457600001348,0,27,349,310,0,608,253,12,37,210,794,40,389,0,222,22,High
P118_Exp5,19,F,3,13,49,9,1,13,1,2619.01653333189,603,129,1276,441,0,606,280,17,23,786,792,302,484,59,142,22,High
P118_Exp5,19,F,3,13,50,11,3,15,1,3396.58367999982,357,94,1695,0,0,741,309,35,10,1019,789,229,521,131,425,22,High
P118_Exp5,19,F,3,13,51,10,2,14,1,1176.93354666699,87,0,523,134,0,1424,173,19,20,353,790,48,244,0,217,22,High
P118_Exp5,19,F,3,13,52,12,4,16,1,766.299733333653,0,0,97,0,0,894,1493,4,17,230,794,203,463,117,408,22,High
P118_Exp5,19,F,3,14,53,11,3,15,1,1947.22303999879,312,0,557,547,0,1215,237,33,19,584,794,326,193,45,71,22,High
P118_Exp5,19,F,3,14,54,9,1,13,1,1816.11690666796,221,0,1368,313,0,1616,236,15,12,544,789,6,128,0,83,22,High
P118_Exp5,19,F,3,14,55,10,2,14,1,2019.16629333391,0,0,1584,275,200,2194,183,11,11,606,792,0,9,0,0,22,High
P118_Exp5,19,F,3,14,56,12,4,16,1,1334.40938666536,111,0,845,437,0,533,77,17,23,400,788,30,376,0,265,22,High
P118_Exp5,19,F,3,15,57,9,1,13,1,1652.22016000007,420,60,941,606,0,1562,114,8,18,496,793,10,19,0,0,22,High
P118_Exp5,19,F,3,15,58,10,2,14,1,1333.18741333278,147,0,855,670,0,1437,117,13,16,400,787,18,93,0,91,22,High
P118_Exp5,19,F,3,15,59,12,4,16,1,1684.58794666549,93,0,496,350,0,34,1036,19,24,506,793,348,595,203,155,22,High
P118_Exp5,19,F,3,15,60,11,3,15,1,662.199893333309,0,7,27,104,20,750,6,8,18,199,794,129,359,46,168,22,High
P118_Exp5,19,F,3,16,61,9,1,13,1,1063.09845333271,223,0,727,827,0,480,2027,4,27,319,790,11,262,0,196,22,High
P118_Exp5,19,F,3,16,62,12,4,16,1,2033.20277333296,0,7,1118,83,6,7,2356,17,11,610,789,221,676,116,502,22,High
P118_Exp5,19,F,3,16,63,11,3,15,1,2332.50517333363,61,0,91,228,101,128,87,30,20,700,789,340,491,177,361,22,High
P118_Exp5,19,F,3,16,64,10,2,14,1,314.666666667108,0,0,286,101,0,53,317,2,11,94,793,7,480,0,305,22,High
P118_Exp5,19,F,3,17,65,9,1,13,1,756.72874666634,37,0,441,213,0,0,NA,10,17,228,785,34,530,0,368,22,High
P118_Exp5,19,F,3,17,66,11,3,15,1,890.43285333355,0,0,7,0,0,477,1556,1,13,267,791,265,485,251,434,22,High
P118_Exp5,19,F,3,17,67,12,4,16,1,1140.27818666546,0,0,0,74,14,61,2133,2,14,342,787,297,605,196,404,22,High
P118_Exp5,19,F,3,17,68,10,2,14,1,266.637653332509,NA,0,NA,397,NA,922,500,NA,18,80,793,65,296,31,264,22,High
P118_Exp5,19,F,3,18,69,12,4,16,1,1313.56970666639,0,0,303,800,0,0,NA,15,34,394,790,260,343,108,179,22,High
P118_Exp5,19,F,3,18,70,9,1,13,1,962.610773332926,0,0,295,0,0,391,400,17,7,289,794,95,612,83,541,22,High
P118_Exp5,19,F,3,18,71,11,3,15,1,782.02837333447,0,0,95,60,14,0,NA,8,7,235,788,106,587,36,371,22,High
P118_Exp5,19,F,3,18,72,10,2,14,1,556.433493333316,90,244,287,39,0,0,NA,6,28,167,786,35,453,0,205,22,High
P119_Exp5,20,F,1,1,1,4,4,8,2,4879.07191070644,57,NA,33,NA,0,NA,NA,8,NA,1464,804,1282,795,1184,782,9,Low
P119_Exp5,20,F,1,1,2,2,2,6,3,5306.00919897279,NA,97,NA,150,NA,0,NA,NA,16,1592,786,1571,555,1547,499,9,Low
P119_Exp5,20,F,1,1,3,1,1,5,4,4201.13835152279,16,0,0,276,0,71,303,1,30,1260,788,1246,426,1220,371,9,Low
P119_Exp5,20,F,1,1,4,3,3,7,1,2116.39558995466,36,20,10,138,0,141,1830,3,18,635,789,551,563,440,544,9,Low
P119_Exp5,20,F,1,2,5,2,2,6,1,1872.75167040752,14,80,0,27,0,27,564,1,6,562,786,556,718,549,589,9,Low
P119_Exp5,20,F,1,2,6,3,3,7,1,2968.78365347766,0,27,109,39,0,0,NA,6,4,891,787,781,638,658,509,9,Low
P119_Exp5,20,F,1,2,7,4,4,8,1,3222.61086980689,275,0,432,33,0,56,1937,34,7,967,787,513,720,180,611,9,Low
P119_Exp5,20,F,1,2,8,1,1,5,3,7282.59832575259,73,65,230,50,0,172,290,20,19,2185,789,1785,547,1623,509,9,Low
P119_Exp5,20,F,1,3,9,3,3,7,2,3883.65603693182,60,10,30,21,0,34,1796,7,5,1166,787,1008,724,826,573,9,Low
P119_Exp5,20,F,1,3,10,2,2,6,1,3780.04428818895,477,92,471,77,0,147,403,58,21,1134,795,208,587,137,227,9,Low
P119_Exp5,20,F,1,3,11,4,4,8,1,2728.37260105644,126,0,186,112,0,14,2616,22,6,819,790,475,625,351,575,9,Low
P119_Exp5,20,F,1,3,12,1,1,5,1,1974.54069137439,63,153,151,170,0,0,NA,15,23,592,791,398,588,270,306,9,Low
P119_Exp5,20,F,1,4,13,3,3,7,2,3329.49217916666,179,20,70,10,0,61,2417,14,5,999,795,736,639,672,560,9,Low
P119_Exp5,20,F,1,4,14,1,1,5,1,1614.18160717494,34,170,110,13,0,10,267,15,18,484,789,349,444,183,315,9,Low
P119_Exp5,20,F,1,4,15,2,2,6,2,2730.24055569294,57,0,0,0,0,358,1640,4,16,819,789,775,492,660,482,9,Low
P119_Exp5,20,F,1,4,16,4,4,8,1,2489.42587488364,82,0,150,169,0,0,NA,19,13,747,787,291,594,109,528,9,Low
P119_Exp5,20,F,1,5,17,2,2,6,1,4915.45563927775,86,NA,170,NA,0,NA,NA,21,NA,1475,789,1136,786,877,785,9,Low
P119_Exp5,20,F,1,5,18,3,3,7,2,4139.3601679365,311,0,315,179,0,144,294,35,21,1242,787,671,531,435,487,9,Low
P119_Exp5,20,F,1,5,19,4,4,8,1,1408.23043511682,97,47,134,40,0,47,266,12,9,422,786,193,682,152,562,9,Low
P119_Exp5,20,F,1,5,20,1,1,5,1,1765.94844137981,173,0,171,10,0,14,299,17,2,530,787,194,755,53,686,9,Low
P119_Exp5,20,F,1,6,21,4,4,8,1,1435.29231058073,94,30,0,10,0,0,NA,4,6,431,786,363,746,312,683,9,Low
P119_Exp5,20,F,1,6,22,3,3,7,2,3270.73992849091,30,0,57,162,0,96,2283,12,18,981,787,742,523,711,493,9,Low
P119_Exp5,20,F,1,6,23,2,2,6,2,7904.73986022334,370,0,381,187,0,0,NA,45,16,2372,787,1419,537,1210,449,9,Low
P119_Exp5,20,F,1,6,24,1,1,5,1,1413.65083157689,41,60,89,0,0,0,NA,8,2,424,789,306,727,269,695,9,Low
P119_Exp5,20,F,2,7,25,7,3,11,3,5006.31085359328,73,53,134,104,0,181,1453,20,19,1503,785,1106,426,676,256,9,Low
P119_Exp5,20,F,2,7,26,5,1,9,3,6825.97344415353,177,10,381,10,0,109,413,37,10,2048,785,1518,712,1210,564,9,Low
P119_Exp5,20,F,2,7,27,6,2,10,3,3491.50076373644,86,0,189,0,0,150,1233,26,9,1048,785,670,552,537,477,9,Low
P119_Exp5,20,F,2,7,28,8,4,12,3,3428.43190797612,84,51,256,77,0,196,370,25,24,1029,790,691,365,551,137,9,Low
P119_Exp5,20,F,2,8,29,5,1,9,2,5475.19050747906,113,224,63,0,0,0,NA,14,11,1643,786,1341,600,1162,565,9,Low
P119_Exp5,20,F,2,8,30,8,4,12,1,6788.09424253541,0,117,33,0,0,0,NA,5,9,2036,793,1866,587,1628,420,9,Low
P119_Exp5,20,F,2,8,31,7,3,11,1,4398.32105950336,120,0,501,0,0,518,1783,39,26,1319,789,636,511,351,381,9,Low
P119_Exp5,20,F,2,8,32,6,2,10,2,3138.56869789288,80,10,109,0,37,493,850,13,22,941,787,627,451,512,404,9,Low
P119_Exp5,20,F,2,9,33,7,3,11,1,2930.75426455198,0,70,0,0,0,20,393,2,7,880,789,835,652,794,559,9,Low
P119_Exp5,20,F,2,9,34,6,2,10,1,5707.09379026721,210,30,293,36,0,0,NA,40,8,1712,792,922,651,561,437,9,Low
P119_Exp5,20,F,2,9,35,8,4,12,1,4224.46261104051,183,NA,107,NA,0,NA,NA,17,NA,1267,785,1012,758,802,683,9,Low
P119_Exp5,20,F,2,9,36,5,1,9,1,6268.22215774791,454,100,276,213,0,59,2397,56,23,1880,788,811,433,471,339,9,Low
P119_Exp5,20,F,2,10,37,8,4,12,1,1789.60379564251,20,0,20,171,0,0,NA,4,9,537,786,430,650,426,557,9,Low
P119_Exp5,20,F,2,10,38,5,1,9,1,2002.9277991589,46,20,0,0,0,0,NA,4,5,601,792,448,670,335,443,9,Low
P119_Exp5,20,F,2,10,39,7,3,11,1,2318.88264056579,138,23,0,0,0,247,217,7,23,696,793,581,354,381,267,9,Low
P119_Exp5,20,F,2,10,40,6,2,10,2,3301.17291167153,24,0,173,57,64,37,409,27,10,990,788,315,474,162,421,9,Low
P119_Exp5,20,F,2,11,41,5,1,9,2,2512.7407476939,89,0,146,0,0,10,400,17,3,753,789,438,725,227,548,9,Low
P119_Exp5,20,F,2,11,42,8,4,12,1,2271.61545222589,0,30,0,20,33,0,NA,9,3,682,792,541,673,399,547,9,Low
P119_Exp5,20,F,2,11,43,7,3,11,2,2768.8886139249,20,56,248,0,0,0,NA,37,5,830,787,122,717,77,667,9,Low
P119_Exp5,20,F,2,11,44,6,2,10,2,2662.74842772691,43,0,0,0,0,0,NA,5,1,799,789,707,708,619,602,9,Low
P119_Exp5,20,F,2,12,45,8,4,12,1,6118.32242484252,364,80,240,119,0,40,260,46,17,1836,788,1138,567,922,424,9,Low
P119_Exp5,20,F,2,12,46,5,1,9,2,2901.93280824678,NA,70,NA,10,NA,0,NA,NA,6,871,788,864,559,846,363,9,Low
P119_Exp5,20,F,2,12,47,7,3,11,1,2701.42720608965,129,33,247,156,0,43,423,28,18,810,788,278,538,121,455,9,Low
P119_Exp5,20,F,2,12,48,6,2,10,2,3437.99696212045,171,0,213,293,0,0,NA,25,18,1032,787,506,437,378,395,9,Low
P119_Exp5,20,F,3,13,49,12,4,16,2,6247.80351062782,119,74,101,0,0,0,NA,14,5,1875,788,1609,608,1379,501,9,Low
P119_Exp5,20,F,3,13,50,11,3,15,1,2488.04218898022,74,10,20,54,0,228,1293,9,14,746,792,613,590,510,430,9,Low
P119_Exp5,20,F,3,13,51,10,2,14,1,1296.53033186332,37,NA,10,NA,0,NA,NA,7,NA,389,788,253,788,0,788,9,Low
P119_Exp5,20,F,3,13,52,9,1,13,1,1409.25529282231,0,10,20,0,0,0,NA,2,1,423,790,322,661,319,553,9,Low
P119_Exp5,20,F,3,14,53,11,3,15,1,1251.34400573461,66,0,90,40,0,43,237,12,11,375,793,142,604,75,308,9,Low
P119_Exp5,20,F,3,14,54,9,1,13,2,3565.49019942486,23,64,184,20,0,34,260,11,9,1070,789,840,606,586,525,9,Low
P119_Exp5,20,F,3,14,55,12,4,16,1,2771.21182383689,103,10,209,0,0,0,NA,21,1,831,786,630,739,503,708,9,Low
P119_Exp5,20,F,3,14,56,10,2,14,1,1952.02752865043,50,36,50,0,0,0,NA,8,13,586,787,441,641,362,611,9,Low
P119_Exp5,20,F,3,15,57,12,4,16,2,2355.46306330889,170,0,117,0,0,0,NA,19,7,707,787,562,680,442,566,9,Low
P119_Exp5,20,F,3,15,58,10,2,14,1,1803.00587949205,10,36,368,107,0,182,464,24,27,541,787,236,271,68,145,9,Low
P119_Exp5,20,F,3,15,59,9,1,13,1,2181.93229624467,76,NA,174,NA,0,NA,NA,21,NA,655,793,386,793,334,793,9,Low
P119_Exp5,20,F,3,15,60,11,3,15,1,1530.56013038986,171,0,262,43,0,405,1166,22,19,459,789,112,449,36,386,9,Low
P119_Exp5,20,F,3,16,61,10,2,14,1,1899.64714516191,185,177,50,23,0,37,240,17,12,570,789,251,640,168,430,9,Low
P119_Exp5,20,F,3,16,62,11,3,15,1,891.263536058432,30,0,10,380,0,17,313,3,27,267,786,131,249,94,199,9,Low
P119_Exp5,20,F,3,16,63,12,4,16,1,1364.6859293267,40,0,23,70,0,20,213,6,6,410,793,251,723,236,665,9,Low
P119_Exp5,20,F,3,16,64,9,1,13,1,1577.07211550769,0,114,20,10,0,41,226,2,16,473,790,421,564,393,426,9,Low
P119_Exp5,20,F,3,17,65,11,3,15,1,1954.00641709421,146,0,228,264,0,0,NA,25,18,586,787,112,507,73,479,9,Low
P119_Exp5,20,F,3,17,66,12,4,16,1,1815.62033331375,89,NA,30,NA,0,NA,NA,8,NA,545,794,339,787,308,779,9,Low
P119_Exp5,20,F,3,17,67,9,1,13,1,5107.09123025663,246,23,258,240,0,0,NA,36,20,1532,787,957,392,573,322,9,Low
P119_Exp5,20,F,3,17,68,10,2,14,1,1386.14607422369,36,43,173,200,0,23,230,12,24,416,787,106,319,37,224,9,Low
P119_Exp5,20,F,3,18,69,12,4,16,1,842.90066304311,20,NA,0,NA,0,NA,NA,2,NA,253,791,243,770,209,767,9,Low
P119_Exp5,20,F,3,18,70,9,1,13,1,1004.66604657504,NA,0,NA,194,NA,0,NA,NA,13,301,787,301,672,301,576,9,Low
P119_Exp5,20,F,3,18,71,10,2,14,1,1553.41036121717,57,30,23,13,0,0,NA,7,9,466,793,377,647,241,498,9,Low
P119_Exp5,20,F,3,18,72,11,3,15,1,878.399907839594,17,0,0,146,0,171,2103,4,44,263,795,85,37,76,0,9,Low
P120_Exp5,20,F,1,1,1,1,1,5,1,3499.2503434687,882,376,2016,550,0,1147,240,10,9,1050,794,68,47,63,47,22,High
P120_Exp5,20,F,1,1,2,2,2,6,3,4256.32493365356,293,150,3295,673,137,1085,217,16,6,1277,792,0,158,0,151,22,High
P120_Exp5,20,F,1,1,3,3,3,7,1,4801.05216448919,767,313,2870,634,0,1269,210,19,11,1441,798,106,0,99,0,22,High
P120_Exp5,20,F,1,1,4,4,4,8,1,1555.7775179841,320,177,894,361,0,1590,223,6,9,467,792,0,0,0,0,22,High
P120_Exp5,20,F,1,2,5,2,2,6,1,2559.33465316048,410,573,1485,1066,0,366,214,10,10,768,786,55,62,54,62,22,High
P120_Exp5,20,F,1,2,6,1,1,5,1,2276.976541767,508,0,1294,868,0,977,203,10,9,683,785,45,79,45,61,22,High
P120_Exp5,20,F,1,2,7,3,3,7,1,1582.82062003491,237,459,1076,984,0,240,1597,8,10,475,794,0,122,0,115,22,High
P120_Exp5,20,F,1,2,8,4,4,8,1,6003.74145596379,656,284,4214,1224,0,160,240,22,9,1801,788,75,175,73,168,22,High
P120_Exp5,20,F,1,3,9,1,1,5,1,5022.39284220923,2032,207,1882,1366,0,253,314,18,14,1507,792,146,51,138,48,22,High
P120_Exp5,20,F,1,3,10,3,3,7,1,1455.48397006496,352,173,930,1104,0,347,2213,7,7,437,792,0,222,0,211,22,High
P120_Exp5,20,F,1,3,11,2,2,6,1,1609.50062720258,187,110,1197,1799,0,0,NA,4,8,483,790,0,140,0,140,22,High
P120_Exp5,20,F,1,3,12,4,4,8,1,1949.52469130567,213,804,1547,1404,0,0,NA,5,7,585,794,0,56,0,55,22,High
P120_Exp5,20,F,1,4,13,1,1,5,1,1353.54049510624,397,864,834,955,0,133,234,5,10,406,792,0,104,0,100,22,High
P120_Exp5,20,F,1,4,14,2,2,6,1,1575.57450911736,333,410,1079,1296,0,137,1990,5,10,473,791,0,79,0,49,22,High
P120_Exp5,20,F,1,4,15,4,4,8,1,1012.89989503948,237,330,674,1774,0,0,NA,3,7,304,789,0,66,0,65,22,High
P120_Exp5,20,F,1,4,16,3,3,7,1,639.948970449041,164,0,393,1643,0,177,660,3,6,192,786,0,151,0,146,22,High
P120_Exp5,20,F,1,5,17,1,1,5,1,1342.13735311914,267,770,963,1230,0,213,1847,4,7,402,786,0,30,0,30,22,High
P120_Exp5,20,F,1,5,18,2,2,6,1,1878.54412178876,296,723,1217,1210,0,0,NA,7,6,564,790,30,132,30,129,22,High
P120_Exp5,20,F,1,5,19,4,4,8,1,1382.80952665446,273,0,947,1866,0,0,NA,6,6,415,788,0,167,0,160,22,High
P120_Exp5,20,F,1,5,20,3,3,7,1,1892.17959330017,639,280,1060,1385,0,273,730,7,8,568,786,0,103,0,98,22,High
P120_Exp5,20,F,1,6,21,1,1,5,1,1388.1902429448,253,0,1016,2114,0,0,NA,4,7,416,793,0,81,0,81,22,High
P120_Exp5,20,F,1,6,22,2,2,6,1,1024.8602660713,117,430,808,1695,0,0,NA,4,7,308,791,0,71,0,64,22,High
P120_Exp5,20,F,1,6,23,3,3,7,1,925.283521210076,234,326,583,1715,0,0,NA,4,7,277,791,0,105,0,99,22,High
P120_Exp5,20,F,1,6,24,4,4,8,1,962.709174225893,266,0,570,1886,0,236,2117,4,9,289,795,0,64,0,44,22,High
P120_Exp5,20,F,2,7,25,5,1,9,4,7627.43009036876,543,290,6116,859,0,547,237,22,11,2288,791,26,51,0,51,22,High
P120_Exp5,20,F,2,7,26,6,2,10,1,1308.03843429749,310,276,713,780,40,595,253,6,10,392,791,22,186,0,168,22,High
P120_Exp5,20,F,2,7,27,7,3,11,1,1804.08620410071,483,164,1106,370,0,1173,1000,7,8,541,793,0,112,0,112,22,High
P120_Exp5,20,F,2,7,28,8,4,12,1,2696.10067669601,1000,357,1195,184,0,1555,247,10,8,809,789,0,61,0,60,22,High
P120_Exp5,20,F,2,8,29,5,1,9,1,1546.20649048047,356,0,1056,363,0,1884,429,6,9,464,790,0,50,0,49,22,High
P120_Exp5,20,F,2,8,30,7,3,11,1,1279.86807410343,280,37,824,616,0,1234,87,5,10,384,790,0,114,0,114,22,High
P120_Exp5,20,F,2,8,31,6,2,10,1,1681.26882674642,302,187,1079,383,0,1654,166,6,12,505,789,0,0,0,0,22,High
P120_Exp5,20,F,2,8,32,8,4,12,1,3881.69720190763,866,0,1700,1127,494,1243,243,14,10,1165,789,101,0,101,0,22,High
P120_Exp5,20,F,2,9,33,6,2,10,1,6159.57486751904,1464,660,2907,356,397,383,214,16,13,1848,801,263,48,253,47,22,High
P120_Exp5,20,F,2,9,34,8,4,12,1,5635.98095351881,1573,1086,2824,812,0,170,247,20,9,1691,788,148,49,147,49,22,High
P120_Exp5,20,F,2,9,35,5,1,9,1,1996.65363905569,927,1053,604,911,273,117,280,6,12,599,794,0,38,0,33,22,High
P120_Exp5,20,F,2,9,36,7,3,11,1,1617.5621015982,330,233,970,1096,0,297,336,5,10,486,788,59,49,59,49,22,High
P120_Exp5,20,F,2,10,37,5,1,9,2,4304.54359271971,957,526,2599,750,0,567,199,14,9,1291,793,77,72,72,46,22,High
P120_Exp5,20,F,2,10,38,7,3,11,1,2830.45900995876,833,1014,1443,710,0,0,NA,11,11,849,789,50,58,50,58,22,High
P120_Exp5,20,F,2,10,39,6,2,10,1,1586.57786273307,323,660,1197,937,0,0,NA,3,7,476,788,0,214,0,214,22,High
P120_Exp5,20,F,2,10,40,8,4,12,1,654.829033937858,244,776,323,850,0,0,NA,3,7,196,792,0,210,0,210,22,High
P120_Exp5,20,F,2,11,41,6,2,10,1,1383.89070460016,307,440,853,1536,0,0,NA,6,6,416,793,19,101,0,101,22,High
P120_Exp5,20,F,2,11,42,8,4,12,1,1084.55033408154,327,117,654,1623,0,0,NA,4,9,325,793,0,114,0,92,22,High
P120_Exp5,20,F,2,11,43,7,3,11,1,974.296210330976,336,160,566,1589,0,0,NA,3,7,293,791,0,144,0,142,22,High
P120_Exp5,20,F,2,11,44,5,1,9,1,1009.70756141851,210,0,719,1731,0,164,2326,3,10,303,785,0,48,0,48,22,High
P120_Exp5,20,F,2,12,45,8,4,12,1,1166.26929608265,256,1018,764,716,0,0,NA,3,8,350,794,0,104,0,94,22,High
P120_Exp5,20,F,2,12,46,5,1,9,1,1012.66992072487,304,416,596,896,0,0,NA,3,7,304,794,0,271,0,268,22,High
P120_Exp5,20,F,2,12,47,6,2,10,1,823.055031702097,283,196,437,1301,0,0,NA,4,12,247,792,0,147,0,141,22,High
P120_Exp5,20,F,2,12,48,7,3,11,1,481.464240913738,117,186,260,790,0,0,NA,3,7,144,789,0,135,0,135,22,High
P120_Exp5,20,F,3,13,49,10,2,14,1,2095.93384931759,397,379,1361,1303,0,339,593,7,9,629,790,32,50,29,50,22,High
P120_Exp5,20,F,3,13,50,12,4,16,1,1144.49426984174,280,170,527,273,0,1607,236,5,9,343,795,0,79,0,76,22,High
P120_Exp5,20,F,3,13,51,11,3,15,1,1229.5356993518,246,0,847,638,0,1318,193,4,8,369,790,0,53,0,53,22,High
P120_Exp5,20,F,3,13,52,9,1,13,1,1033.90478466008,323,0,610,380,0,1867,160,3,8,310,793,0,37,0,37,22,High
P120_Exp5,20,F,3,14,53,10,2,14,1,1680.0899417176,247,0,1283,340,0,2016,240,6,5,504,794,0,35,0,35,22,High
P120_Exp5,20,F,3,14,54,9,1,13,1,2160.78063266377,277,0,1673,360,0,1839,260,8,8,648,796,0,28,0,28,22,High
P120_Exp5,20,F,3,14,55,12,4,16,1,3406.11245274704,764,0,1690,1081,0,1273,173,10,10,1022,791,113,0,109,0,22,High
P120_Exp5,20,F,3,14,56,11,3,15,1,1344.75795096751,67,0,1069,1646,0,643,214,4,8,404,795,0,46,0,46,22,High
P120_Exp5,20,F,3,15,57,10,2,14,1,2069.93395171867,496,227,1150,1452,0,0,NA,8,7,621,788,46,207,46,207,22,High
P120_Exp5,20,F,3,15,58,11,3,15,1,2958.98350499556,395,153,2157,1692,0,0,NA,8,11,888,786,64,85,64,85,22,High
P120_Exp5,20,F,3,15,59,12,4,16,1,1781.37421386327,504,227,993,1488,0,320,2286,5,12,535,789,26,58,0,58,22,High
P120_Exp5,20,F,3,15,60,9,1,13,1,1338.7218718799,203,0,873,1895,0,0,NA,5,13,401,792,0,61,0,61,22,High
P120_Exp5,20,F,3,16,61,11,3,15,1,1648.41449990217,379,0,954,1302,0,0,NA,6,10,495,794,44,289,38,289,22,High
P120_Exp5,20,F,3,16,62,10,2,14,1,961.399301970232,300,620,557,1236,0,0,NA,4,5,288,796,0,181,0,178,22,High
P120_Exp5,20,F,3,16,63,9,1,13,1,1661.82981047405,267,0,1163,1993,0,0,NA,4,12,499,795,0,70,0,70,22,High
P120_Exp5,20,F,3,16,64,12,4,16,1,703.10870659705,204,177,350,633,0,660,1413,3,10,211,787,0,165,0,164,22,High
P120_Exp5,20,F,3,17,65,11,3,15,1,1166.33969638315,354,261,463,333,63,1484,4,7,9,350,789,0,42,0,41,22,High
P120_Exp5,20,F,3,17,66,9,1,13,1,1147.39604222359,349,0,650,746,0,945,10,6,10,344,795,0,116,0,96,22,High
P120_Exp5,20,F,3,17,67,12,4,16,1,977.448863781319,330,616,394,971,0,413,4,3,13,294,795,0,39,0,37,22,High
P120_Exp5,20,F,3,17,68,10,2,14,1,823.187725600292,226,0,407,398,0,1323,3,4,8,247,791,0,145,0,143,22,High
P120_Exp5,20,F,3,18,69,12,4,16,1,2990.20625154662,594,964,2063,318,0,0,NA,8,12,898,791,26,113,26,113,22,High
P120_Exp5,20,F,3,18,70,11,3,15,1,1106.61762823474,257,930,557,941,0,0,NA,3,12,332,787,0,68,0,66,22,High
P120_Exp5,20,F,3,18,71,9,1,13,1,1161.35108843082,292,1148,724,579,0,0,NA,6,8,349,795,0,165,0,159,22,High
P120_Exp5,20,F,3,18,72,10,2,14,1,774.719892137909,280,0,426,1048,0,803,163,2,12,232,792,0,98,0,98,22,High
P121_Exp5,23,F,1,1,1,1,1,5,3,4375.0518402212,207,477,3381,685,0,1092,263,17,12,1313,791,2,2,0,0,24,High
P121_Exp5,23,F,1,1,2,2,2,6,1,2377.26838301205,243,377,1686,403,0,1334,403,8,7,713,791,52,54,42,47,24,High
P121_Exp5,23,F,1,1,3,3,3,7,1,1741.46407024637,0,670,1162,437,0,1216,240,9,10,522,791,42,0,42,0,24,High
P121_Exp5,23,F,1,1,4,4,4,8,1,1716.11526875859,224,412,1156,200,0,736,250,7,16,515,789,48,70,48,67,24,High
P121_Exp5,23,F,1,2,5,1,1,5,1,2142.38482084147,417,583,1554,1137,0,220,223,7,20,643,791,0,62,0,62,24,High
P121_Exp5,23,F,1,2,6,4,4,8,1,1364.95558381102,60,410,859,817,0,611,767,8,17,410,789,44,66,34,66,24,High
P121_Exp5,23,F,1,2,7,2,2,6,1,1235.97796683862,143,290,971,1146,0,781,470,7,8,371,788,0,49,0,44,24,High
P121_Exp5,23,F,1,2,8,3,3,7,1,709.288999632918,143,0,487,197,0,1219,247,3,6,213,786,0,235,0,233,24,High
P121_Exp5,23,F,1,3,9,4,4,8,1,1300.8413902553,204,164,854,351,0,944,237,12,17,390,794,0,206,0,197,24,High
P121_Exp5,23,F,1,3,10,1,1,5,1,1316.06236186599,0,63,891,273,0,270,520,5,6,394,794,0,518,0,489,24,High
P121_Exp5,23,F,1,3,11,3,3,7,1,4491.40134998015,157,0,3064,1329,0,483,480,18,4,1348,791,297,248,185,225,24,High
P121_Exp5,23,F,1,3,12,2,2,6,1,1066.54748393521,183,277,802,896,0,650,463,3,16,320,793,2,50,0,50,24,High
P121_Exp5,23,F,1,4,13,4,4,8,1,1081.70402860378,270,367,676,970,0,698,233,6,13,325,789,0,63,0,63,24,High
P121_Exp5,23,F,1,4,14,1,1,5,1,1931.14637289182,480,61,1303,290,0,0,NA,10,12,579,790,0,189,0,154,24,High
P121_Exp5,23,F,1,4,15,2,2,6,1,873.386979785209,112,323,633,1722,0,0,NA,6,8,263,786,0,71,0,69,24,High
P121_Exp5,23,F,1,4,16,3,3,7,1,340.451159258009,0,59,40,237,0,1040,230,5,10,102,786,0,135,0,130,24,High
P121_Exp5,23,F,1,5,17,2,2,6,1,991.520390487494,177,0,727,677,0,0,NA,4,6,298,786,0,108,0,96,24,High
P121_Exp5,23,F,1,5,18,3,3,7,1,756.94061628019,303,0,387,2117,0,0,NA,5,5,227,786,0,117,0,109,24,High
P121_Exp5,23,F,1,5,19,1,1,5,1,922.710710232423,167,260,469,1246,0,0,NA,4,9,277,792,0,266,0,241,24,High
P121_Exp5,23,F,1,5,20,4,4,8,1,490.111531142247,253,470,143,739,0,0,NA,3,18,147,786,0,162,0,142,24,High
P121_Exp5,23,F,1,6,21,1,1,5,1,1210.47983137942,247,642,799,127,0,523,1593,5,25,363,786,0,117,0,83,24,High
P121_Exp5,23,F,1,6,22,3,3,7,1,981.210799833207,295,356,433,1743,0,0,NA,8,9,294,789,42,88,42,83,24,High
P121_Exp5,23,F,1,6,23,2,2,6,1,739.600808963587,0,314,417,2257,0,0,NA,2,2,222,787,0,0,0,0,24,High
P121_Exp5,23,F,1,6,24,4,4,8,1,459.019771817111,0,1771,433,120,0,0,NA,2,30,137,786,0,82,0,77,24,High
P121_Exp5,23,F,2,7,25,6,2,10,1,6453.70262913093,3653,0,1043,53,0,2005,236,44,9,1937,792,343,117,319,115,24,High
P121_Exp5,23,F,2,7,26,7,3,11,1,910.173910075173,216,0,410,137,0,2423,170,4,10,274,790,0,0,0,0,24,High
P121_Exp5,23,F,2,7,27,8,4,12,1,2701.33888571218,301,346,459,610,0,646,294,7,39,810,789,77,142,77,105,24,High
P121_Exp5,23,F,2,7,28,5,1,9,1,901.782620940139,210,243,433,576,0,1357,203,7,7,270,788,39,55,39,52,24,High
P121_Exp5,23,F,2,8,29,7,3,11,1,2325.35392151112,582,429,1156,210,0,990,253,15,9,698,786,52,73,48,73,24,High
P121_Exp5,23,F,2,8,30,8,4,12,1,1525.2267743017,0,318,1169,290,0,653,603,3,15,457,786,0,285,0,246,24,High
P121_Exp5,23,F,2,8,31,6,2,10,1,1069.22482869231,246,134,687,447,0,1496,543,9,12,321,793,0,65,0,65,24,High
P121_Exp5,23,F,2,8,32,5,1,9,1,429.591592925135,0,814,20,287,0,605,670,7,11,129,789,0,51,0,46,24,High
P121_Exp5,23,F,2,9,33,7,3,11,1,1327.43350371493,154,602,906,443,0,0,NA,7,23,398,796,55,206,51,158,24,High
P121_Exp5,23,F,2,9,34,8,4,12,1,1166.13020215482,0,0,743,371,0,904,494,10,18,349,789,0,206,0,189,24,High
P121_Exp5,23,F,2,9,35,6,2,10,1,1005.12983521912,170,0,700,127,0,853,150,5,4,302,792,0,0,0,0,24,High
P121_Exp5,23,F,2,9,36,5,1,9,1,1016.20870915758,97,250,510,834,0,1318,240,10,8,304,794,0,3,0,0,24,High
P121_Exp5,23,F,2,10,37,8,4,12,1,2333.38638244823,438,655,1074,331,0,250,253,12,25,700,794,138,243,122,234,24,High
P121_Exp5,23,F,2,10,38,6,2,10,1,4507.07629685894,190,47,3210,1489,0,0,NA,19,12,1352,787,80,255,78,185,24,High
P121_Exp5,23,F,2,10,39,7,3,11,1,1363.23013644869,0,0,926,1900,0,676,1950,6,3,409,789,0,0,0,0,24,High
P121_Exp5,23,F,2,10,40,5,1,9,1,888.238029814602,0,0,633,1856,0,0,NA,3,4,267,791,0,7,0,0,24,High
P121_Exp5,23,F,2,11,41,6,2,10,1,1327.48811728379,0,0,1000,567,0,307,287,7,14,398,795,0,267,0,245,24,High
P121_Exp5,23,F,2,11,42,8,4,12,1,1558.19075494583,0,0,923,747,0,747,1133,7,12,468,786,58,225,50,217,24,High
P121_Exp5,23,F,2,11,43,7,3,11,1,884.848575353317,0,0,616,999,0,987,790,6,6,265,788,0,67,0,67,24,High
P121_Exp5,23,F,2,11,44,5,1,9,1,310.251137070736,24,571,226,934,0,280,697,3,11,93,786,0,63,0,61,24,High
P121_Exp5,23,F,2,12,45,8,4,12,1,2498.05055168144,460,0,1424,1845,0,0,NA,15,5,749,794,63,199,48,196,24,High
P121_Exp5,23,F,2,12,46,6,2,10,1,1961.92111753044,779,173,497,1593,0,0,NA,10,12,589,795,59,158,57,148,24,High
P121_Exp5,23,F,2,12,47,7,3,11,1,942.180446636485,443,0,430,2102,0,0,NA,5,6,282,791,0,103,0,101,24,High
P121_Exp5,23,F,2,12,48,5,1,9,1,316.886258715385,0,1857,0,50,0,0,NA,1,4,95,794,0,0,0,0,24,High
P121_Exp5,23,F,3,13,49,10,2,14,1,1149.84938602356,222,303,557,703,0,397,273,14,19,345,788,0,63,0,63,24,High
P121_Exp5,23,F,3,13,50,11,3,15,1,908.578596601728,189,93,597,1095,0,790,253,5,11,273,786,0,68,0,61,24,High
P121_Exp5,23,F,3,13,51,12,4,16,1,1028.34870762126,209,331,393,729,0,626,240,8,25,308,790,0,106,0,90,24,High
P121_Exp5,23,F,3,13,52,9,1,13,1,782.722912952522,190,993,346,167,0,874,216,6,21,235,789,0,0,0,0,24,High
P121_Exp5,23,F,3,14,53,10,2,14,1,2685.66137882226,512,53,493,555,0,732,190,33,12,806,793,195,58,168,52,24,High
P121_Exp5,23,F,3,14,54,11,3,15,1,1518.14834409925,449,26,504,1016,0,1332,197,20,7,456,793,57,0,56,0,24,High
P121_Exp5,23,F,3,14,55,12,4,16,1,1012.46810653174,0,432,960,566,0,467,333,2,17,304,794,0,72,0,67,24,High
P121_Exp5,23,F,3,14,56,9,1,13,1,1439.89819689887,206,473,691,770,0,461,76,16,9,432,792,68,167,62,157,24,High
P121_Exp5,23,F,3,15,57,10,2,14,1,1177.49793065741,184,274,553,603,0,477,96,8,7,353,795,55,53,53,48,24,High
P121_Exp5,23,F,3,15,58,12,4,16,1,1246.21075716641,410,0,670,624,0,1130,240,6,16,374,795,0,159,0,140,24,High
P121_Exp5,23,F,3,15,59,11,3,15,1,831.256453360766,109,0,536,1080,0,1177,3,7,6,249,799,0,77,0,73,24,High
P121_Exp5,23,F,3,15,60,9,1,13,1,1098.32063283466,17,0,736,1554,0,313,183,8,10,330,794,0,144,0,113,24,High
P121_Exp5,23,F,3,16,61,12,4,16,1,3196.71294597538,1785,0,587,1440,0,0,NA,28,11,959,795,70,225,70,182,24,High
P121_Exp5,23,F,3,16,62,11,3,15,1,968.409465214791,0,434,470,1654,0,164,516,3,11,290,793,79,69,75,69,24,High
P121_Exp5,23,F,3,16,63,10,2,14,1,1148.82154163752,143,24,653,2086,0,0,NA,9,4,345,799,0,98,0,82,24,High
P121_Exp5,23,F,3,16,64,9,1,13,1,386.196847774045,70,1066,254,140,0,0,NA,2,48,115,793,0,73,0,70,24,High
P121_Exp5,23,F,3,17,65,11,3,15,1,833.887291251813,140,0,530,1016,0,336,217,7,6,250,788,0,171,0,161,24,High
P121_Exp5,23,F,3,17,66,12,4,16,1,1789.37680800664,453,0,996,1712,0,0,NA,8,16,537,792,48,80,48,74,24,High
P121_Exp5,23,F,3,17,67,10,2,14,1,930.997892257437,123,0,460,1263,0,257,1546,8,9,279,789,0,106,0,104,24,High
P121_Exp5,23,F,3,17,68,9,1,13,1,329.39020539925,0,310,324,1220,0,217,853,1,11,99,790,0,70,0,69,24,High
P121_Exp5,23,F,3,18,69,11,3,15,1,951.474139623315,88,328,583,374,0,0,NA,8,39,285,788,49,97,46,91,24,High
P121_Exp5,23,F,3,18,70,10,2,14,1,830.204288871755,0,0,454,1969,0,0,NA,2,7,249,795,0,81,0,73,24,High
P121_Exp5,23,F,3,18,71,9,1,13,1,1585.01668273857,256,0,849,2029,0,133,606,21,4,475,788,56,81,56,75,24,High
P121_Exp5,23,F,3,18,72,12,4,16,1,397.300895148874,0,268,70,1673,0,0,NA,6,7,119,790,0,78,0,68,24,High
P122_Exp5,19,F,1,1,1,3,3,7,4,5199.82293257635,409,196,4335,854,0,860,333,14,11,1560,793,0,132,0,131,4,Low
P122_Exp5,19,F,1,1,2,2,2,6,3,3630.23458233329,116,487,3129,483,0,906,306,12,14,1089,799,0,55,0,48,4,Low
P122_Exp5,19,F,1,1,3,4,4,8,1,1334.91129562208,197,150,793,1029,183,683,267,5,10,401,788,0,62,0,57,4,Low
P122_Exp5,19,F,1,1,4,1,1,5,2,2502.33472996297,216,545,1871,803,153,693,233,9,10,751,787,0,52,0,52,4,Low
P122_Exp5,19,F,1,2,5,4,4,8,1,2358.10030122775,190,0,1307,1179,147,187,210,9,11,707,791,51,64,50,64,4,Low
P122_Exp5,19,F,1,2,6,3,3,7,3,5035.47108467683,587,440,3725,1091,106,156,287,16,8,1511,788,39,193,39,193,4,Low
P122_Exp5,19,F,1,2,7,2,2,6,3,5254.38145869521,660,160,3516,780,0,157,240,15,8,1577,787,114,324,112,320,4,Low
P122_Exp5,19,F,1,2,8,1,1,5,1,1152.39830356586,220,160,746,1026,0,662,270,4,9,346,792,0,95,0,91,4,Low
P122_Exp5,19,F,1,3,9,2,2,6,1,1461.78117026648,321,220,749,1420,0,234,1106,7,9,438,790,57,58,55,58,4,Low
P122_Exp5,19,F,1,3,10,3,3,7,1,3727.92715915602,487,220,2521,1407,0,230,267,11,9,1119,790,69,52,60,49,4,Low
P122_Exp5,19,F,1,3,11,1,1,5,1,1174.85429271073,167,176,894,1943,0,0,NA,5,7,352,791,0,74,0,74,4,Low
P122_Exp5,19,F,1,3,12,4,4,8,1,2330.29900927431,870,219,1256,1984,0,0,NA,7,8,700,789,0,62,0,62,4,Low
P122_Exp5,19,F,1,4,13,3,3,7,1,4316.01329499063,1121,0,2285,1663,0,0,NA,15,9,1295,789,106,122,96,119,4,Low
P122_Exp5,19,F,1,4,14,2,2,6,1,1210.8851664434,207,250,723,1450,0,0,NA,4,6,363,790,0,51,0,50,4,Low
P122_Exp5,19,F,1,4,15,1,1,5,1,1285.93700666534,226,0,764,1880,0,0,NA,5,8,386,788,0,97,0,94,4,Low
P122_Exp5,19,F,1,4,16,4,4,8,1,800.290561241127,496,1021,220,717,0,250,1377,3,7,240,788,0,129,0,129,4,Low
P122_Exp5,19,F,1,5,17,1,1,5,1,1914.36464795515,431,0,1212,2166,0,0,NA,5,10,575,789,41,3,41,0,4,Low
P122_Exp5,19,F,1,5,18,4,4,8,1,1266.0602285232,103,0,990,1997,0,0,NA,7,9,380,793,0,58,0,55,4,Low
P122_Exp5,19,F,1,5,19,3,3,7,1,483.500729602383,137,0,267,1993,0,0,NA,3,8,145,789,0,79,0,79,4,Low
P122_Exp5,19,F,1,5,20,2,2,6,1,365.968494797926,0,1351,200,782,0,0,NA,2,7,110,788,0,72,0,64,4,Low
P122_Exp5,19,F,1,6,21,3,3,7,1,3228.76513606388,748,0,1511,1673,0,364,793,10,10,969,795,217,58,206,58,4,Low
P122_Exp5,19,F,1,6,22,4,4,8,1,1111.14586088843,237,0,763,1647,0,0,NA,4,8,333,791,0,230,0,225,4,Low
P122_Exp5,19,F,1,6,23,1,1,5,1,1152.19776937738,217,236,659,2100,0,0,NA,4,9,346,788,0,0,0,0,4,Low
P122_Exp5,19,F,1,6,24,2,2,6,1,541.902258783011,216,0,251,2000,0,370,900,3,13,163,785,0,0,0,0,4,Low
P122_Exp5,19,F,2,7,25,7,3,11,1,8625.41706844604,1202,207,2803,1187,107,390,313,22,11,2588,791,1077,0,1064,0,4,Low
P122_Exp5,19,F,2,7,26,5,1,9,1,1467.19943338394,366,0,923,726,0,1366,543,6,8,440,788,0,47,0,45,4,Low
P122_Exp5,19,F,2,7,27,8,4,12,1,1699.22133001091,307,0,904,1771,194,431,773,5,9,510,789,0,57,0,52,4,Low
P122_Exp5,19,F,2,7,28,6,2,10,1,683.842917729635,233,120,359,573,0,726,494,4,12,205,788,0,108,0,92,4,Low
P122_Exp5,19,F,2,8,29,8,4,12,1,1496.92201353355,297,0,981,1276,0,666,453,5,13,450,794,0,71,0,64,4,Low
P122_Exp5,19,F,2,8,30,7,3,11,1,2896.99924053093,706,167,1393,996,0,824,570,13,11,869,790,58,15,54,0,4,Low
P122_Exp5,19,F,2,8,31,5,1,9,1,1960.5600450559,260,299,1278,602,213,959,600,6,12,588,810,0,111,0,106,4,Low
P122_Exp5,19,F,2,8,32,6,2,10,1,1083.70169046066,247,0,502,487,0,1529,413,5,9,325,789,0,44,0,44,4,Low
P122_Exp5,19,F,2,9,33,8,4,12,1,2261.58404942544,197,0,1724,1666,0,233,2296,9,10,678,795,0,47,0,30,4,Low
P122_Exp5,19,F,2,9,34,7,3,11,1,837.778934523158,133,0,450,884,0,1174,580,4,9,252,787,0,79,0,79,4,Low
P122_Exp5,19,F,2,9,35,5,1,9,1,1290.22843830717,216,0,913,2424,0,0,NA,4,11,387,786,0,0,0,0,4,Low
P122_Exp5,19,F,2,9,36,6,2,10,1,698.579193938713,170,0,300,1855,0,404,2003,5,10,210,793,0,14,0,0,4,Low
P122_Exp5,19,F,2,10,37,7,3,11,1,6373.43775333466,873,256,3652,1167,0,783,343,23,10,1912,787,297,21,289,21,4,Low
P122_Exp5,19,F,2,10,38,6,2,10,1,2913.02106889088,984,0,1031,1496,0,836,320,9,9,874,790,116,20,115,19,4,Low
P122_Exp5,19,F,2,10,39,5,1,9,1,1488.77989879293,290,0,1054,1356,0,296,1213,6,9,447,792,0,136,0,131,4,Low
P122_Exp5,19,F,2,10,40,8,4,12,1,1464.37744801005,253,0,850,409,166,1521,80,5,11,439,794,0,51,0,51,4,Low
P122_Exp5,19,F,2,11,41,5,1,9,1,984.223506020498,210,170,623,1316,0,443,1380,4,11,295,793,0,46,0,46,4,Low
P122_Exp5,19,F,2,11,42,8,4,12,1,1293.02866358739,153,0,930,2117,0,0,NA,6,9,388,786,0,70,0,70,4,Low
P122_Exp5,19,F,2,11,43,6,2,10,1,950.391681670226,330,0,514,1779,0,0,NA,4,7,286,788,0,208,0,193,4,Low
P122_Exp5,19,F,2,11,44,7,3,11,1,540.111531143339,246,840,233,1036,0,354,260,3,6,162,786,0,43,0,43,4,Low
P122_Exp5,19,F,2,12,45,8,4,12,1,2944.1708551276,612,0,1292,1804,203,170,2117,13,8,884,785,80,106,61,104,4,Low
P122_Exp5,19,F,2,12,46,5,1,9,1,1206.258800039,337,0,737,1763,0,213,2406,5,10,362,792,0,55,0,50,4,Low
P122_Exp5,19,F,2,12,47,6,2,10,1,971.301424218836,137,0,534,2043,0,0,NA,4,9,291,792,15,30,0,30,4,Low
P122_Exp5,19,F,2,12,48,7,3,11,1,615.698840314508,173,0,143,1940,153,570,2063,4,9,185,794,0,0,0,0,4,Low
P122_Exp5,19,F,3,13,49,10,2,14,1,4112.57434698382,590,163,2574,729,0,1126,290,17,9,1234,796,104,59,98,50,4,Low
P122_Exp5,19,F,3,13,50,12,4,16,1,1414.80240982492,323,194,941,1396,0,0,NA,6,17,425,789,0,58,0,58,4,Low
P122_Exp5,19,F,3,13,51,11,3,15,1,1538.82683232769,163,0,844,970,0,680,230,10,11,461,792,0,45,0,45,4,Low
P122_Exp5,19,F,3,13,52,9,1,13,1,448.434126652501,224,43,160,546,0,990,363,3,10,135,793,0,56,0,50,4,Low
P122_Exp5,19,F,3,14,53,10,2,14,1,1996.67582581787,166,0,956,553,0,421,309,15,25,599,789,46,0,46,0,4,Low
P122_Exp5,19,F,3,14,54,11,3,15,1,1330.26999581853,280,444,902,188,0,1295,293,8,12,399,790,0,71,0,67,4,Low
P122_Exp5,19,F,3,14,55,9,1,13,1,1345.55795438064,213,0,833,1316,0,410,223,8,13,403,790,0,61,0,61,4,Low
P122_Exp5,19,F,3,14,56,12,4,16,1,550.303361294937,220,326,0,544,0,1489,227,2,10,165,794,0,0,0,0,4,Low
P122_Exp5,19,F,3,15,57,10,2,14,1,3601.74464744341,513,0,2211,1546,0,480,326,15,23,1080,788,121,50,119,50,4,Low
P122_Exp5,19,F,3,15,58,9,1,13,1,4223.23380579655,997,182,1617,1268,0,237,276,21,20,1267,787,174,167,172,159,4,Low
P122_Exp5,19,F,3,15,59,12,4,16,1,1144.76392432698,250,300,740,717,0,196,337,5,6,344,790,0,370,0,370,4,Low
P122_Exp5,19,F,3,15,60,11,3,15,1,647.46132250184,160,0,211,2427,0,0,NA,6,15,194,789,0,0,0,0,4,Low
P122_Exp5,19,F,3,16,61,12,4,16,1,961.106180719071,210,0,297,1043,0,0,NA,7,11,288,791,0,375,0,373,4,Low
P122_Exp5,19,F,3,16,62,9,1,13,1,1125.17685408784,240,0,671,2156,0,0,NA,6,21,337,791,0,0,0,0,4,Low
P122_Exp5,19,F,3,16,63,10,2,14,1,949.610878340536,330,277,387,1303,37,363,3,10,18,285,789,0,62,0,60,4,Low
P122_Exp5,19,F,3,16,64,11,3,15,1,580.31564934754,136,213,186,1317,0,404,2080,3,20,175,789,0,0,0,0,4,Low
P122_Exp5,19,F,3,17,65,10,2,14,1,880.034901481849,186,0,533,891,0,193,307,6,13,264,790,0,221,0,213,4,Low
P122_Exp5,19,F,3,17,66,11,3,15,1,1064.4721684148,374,160,498,1452,0,0,NA,7,14,320,789,0,138,0,133,4,Low
P122_Exp5,19,F,3,17,67,9,1,13,1,1099.5511447527,260,0,654,1875,0,0,NA,5,23,330,788,0,0,0,0,4,Low
P122_Exp5,19,F,3,17,68,12,4,16,1,940.277078516374,297,0,334,1723,0,0,NA,5,3,282,787,0,0,0,0,4,Low
P122_Exp5,19,F,3,18,69,11,3,15,1,863.492110900552,190,0,454,1612,0,210,364,4,26,259,794,0,63,0,63,4,Low
P122_Exp5,19,F,3,18,70,12,4,16,1,1032.93539385777,387,0,463,1864,0,0,NA,4,27,310,794,0,0,0,0,4,Low
P122_Exp5,19,F,3,18,71,10,2,14,3,3668.79688019981,280,0,2617,746,0,490,1653,19,12,1101,793,63,193,55,188,4,Low
P122_Exp5,19,F,3,18,72,9,1,13,1,1019.7440842403,110,880,457,287,0,0,NA,4,7,306,793,0,294,0,294,4,Low
P123_Exp5,22,M,1,1,1,3,3,7,3,4111.68170666667,164,380,3091,173,0,1600,190,14,8,1234,795,161,112,134,100,36,High
P123_Exp5,22,M,1,1,2,1,1,5,3,9492.56789333333,655,656,6924,663,16,972,230,37,9,2848,796,388,76,372,76,36,High
P123_Exp5,22,M,1,1,3,4,4,8,2,14483.1355733334,1890,530,10468,793,0,609,294,28,11,4345,795,516,146,483,134,36,High
P123_Exp5,22,M,1,1,4,2,2,6,1,1760.9979733333,214,1001,1233,507,0,400,204,8,9,528,795,55,204,53,186,36,High
P123_Exp5,22,M,1,2,5,4,4,8,1,4634.83050666667,1083,294,2827,776,0,393,2240,16,9,1391,793,134,228,125,208,36,High
P123_Exp5,22,M,1,2,6,3,3,7,1,4501.45706666666,1853,1359,1901,524,0,0,NA,10,8,1351,793,189,218,173,198,36,High
P123_Exp5,22,M,1,2,7,2,2,6,1,4820.10752000002,729,1691,2392,319,0,220,330,15,5,1446,793,291,122,279,109,36,High
P123_Exp5,22,M,1,2,8,1,1,5,1,2326.91711999996,567,826,1024,755,0,487,267,9,9,698,790,108,130,91,120,36,High
P123_Exp5,22,M,1,3,9,2,2,6,1,1843.60149333332,453,733,1237,383,0,243,430,3,7,554,790,32,302,32,297,36,High
P123_Exp5,22,M,1,3,10,4,4,8,1,2646.30869333331,709,647,1467,287,0,553,213,7,5,794,795,95,322,90,322,36,High
P123_Exp5,22,M,1,3,11,1,1,5,1,3528.16383999999,239,1006,2309,263,0,446,344,14,7,1058,811,127,247,94,240,36,High
P123_Exp5,22,M,1,3,12,3,3,7,1,4762.77888000004,1520,263,2095,1231,0,476,180,14,9,1429,820,273,207,243,194,36,High
P123_Exp5,22,M,1,4,13,4,4,8,1,2820.48639999999,423,126,1691,734,0,312,314,11,21,847,815,126,282,114,276,36,High
P123_Exp5,22,M,1,4,14,3,3,7,1,3875.86133333332,177,0,2259,679,0,0,NA,24,38,1163,796,236,242,183,174,36,High
P123_Exp5,22,M,1,4,15,1,1,5,1,4043.24053333335,431,12,544,495,0,0,NA,73,39,1213,801,175,130,139,75,36,High
P123_Exp5,22,M,1,4,16,2,2,6,1,1172.01450666664,40,557,557,432,0,370,310,21,40,352,807,7,161,0,137,36,High
P123_Exp5,22,M,1,5,17,1,1,5,1,4693.8338133333,367,223,1040,1528,0,261,1943,53,22,1408,791,536,97,412,95,36,High
P123_Exp5,22,M,1,5,18,3,3,7,1,1630.35989333332,257,442,1020,170,0,1543,197,7,11,489,799,41,101,31,77,36,High
P123_Exp5,22,M,1,5,19,4,4,8,1,2655.38517333329,333,109,1406,1337,0,0,NA,28,21,797,784,96,141,68,133,36,High
P123_Exp5,22,M,1,5,20,2,2,6,1,1369.21002666668,214,1102,952,300,0,0,NA,13,30,411,786,27,111,0,108,36,High
P123_Exp5,22,M,1,6,21,1,1,5,1,2499.61941333333,237,328,1853,1266,0,20,2620,9,23,750,793,80,206,67,191,36,High
P123_Exp5,22,M,1,6,22,4,4,8,1,1586.55445333341,213,561,1174,953,0,210,207,12,28,476,781,0,141,0,113,36,High
P123_Exp5,22,M,1,6,23,2,2,6,1,4855.28832,2250,1245,1501,313,0,0,NA,49,24,1457,797,208,153,186,89,36,High
P123_Exp5,22,M,1,6,24,3,3,7,1,1856.09344,273,0,1210,7,0,2117,156,9,7,557,791,82,98,68,69,36,High
P123_Exp5,22,M,2,7,25,6,2,10,1,14306.6705066667,3431,451,7489,674,0,951,190,57,9,4293,792,639,74,553,36,36,High
P123_Exp5,22,M,2,7,26,7,3,11,1,7415.12832000001,2762,858,2989,207,0,633,220,26,14,2225,794,285,162,255,145,36,High
P123_Exp5,22,M,2,7,27,8,4,12,1,7952.07807999998,2490,0,1186,327,0,1412,243,16,7,2386,790,603,247,306,238,36,High
P123_Exp5,22,M,2,7,28,5,1,9,1,3740.43690666667,719,216,1511,0,0,1743,154,21,10,1123,791,301,65,284,43,36,High
P123_Exp5,22,M,2,8,29,7,3,11,1,8713.45024000004,1387,1407,5075,413,0,493,287,33,6,2615,800,476,77,450,73,36,High
P123_Exp5,22,M,2,8,30,6,2,10,2,10733.6234666667,2933,200,5832,1065,0,973,200,36,7,3221,804,371,100,343,99,36,High
P123_Exp5,22,M,2,8,31,8,4,12,1,3225.80778666668,874,1293,1728,380,0,463,167,10,7,968,796,121,82,116,72,36,High
P123_Exp5,22,M,2,8,32,5,1,9,1,7867.48074666673,3273,1156,1484,502,0,344,223,92,26,2361,794,385,86,349,82,36,High
P123_Exp5,22,M,2,9,33,8,4,12,1,4196.92032,1578,91,1496,191,0,787,133,25,24,1259,805,202,332,181,211,36,High
P123_Exp5,22,M,2,9,34,7,3,11,2,8543.49951999995,494,676,3181,632,0,353,193,90,37,2564,811,512,89,343,80,36,High
P123_Exp5,22,M,2,9,35,5,1,9,1,4952.77397333325,1144,1149,1752,690,0,230,203,50,15,1486,793,250,109,242,99,36,High
P123_Exp5,22,M,2,9,36,6,2,10,1,4271.37493333328,756,260,2021,950,0,376,217,35,13,1282,792,252,211,204,199,36,High
P123_Exp5,22,M,2,10,37,8,4,12,1,4636.82816000005,2028,703,1056,989,0,300,267,46,17,1392,792,218,120,164,103,36,High
P123_Exp5,22,M,2,10,38,6,2,10,2,6975.22175999995,1176,880,2294,300,0,223,177,92,36,2093,795,454,156,321,154,36,High
P123_Exp5,22,M,2,10,39,5,1,9,1,3986.40810666666,877,324,1419,762,0,210,1986,52,22,1196,793,181,253,161,235,36,High
P123_Exp5,22,M,2,10,40,7,3,11,2,7382.94997333333,1177,530,4767,630,0,683,240,59,30,2215,795,238,122,185,93,36,High
P123_Exp5,22,M,2,11,41,6,2,10,1,4172.98602666665,1406,890,1591,664,0,210,210,30,20,1252,797,175,175,159,164,36,High
P123_Exp5,22,M,2,11,42,5,1,9,1,4400.23509333332,747,893,2155,315,0,0,NA,44,34,1320,794,171,156,141,138,36,High
P123_Exp5,22,M,2,11,43,8,4,12,1,2786.8219733333,373,1057,1577,280,0,210,257,22,36,836,792,120,176,119,153,36,High
P123_Exp5,22,M,2,11,44,7,3,11,1,3680.38911999997,944,468,1555,799,0,190,244,40,28,1105,794,104,175,101,170,36,High
P123_Exp5,22,M,2,12,45,5,1,9,1,2168.84991999996,1003,1693,517,310,0,0,NA,20,24,651,793,1,104,0,94,36,High
P123_Exp5,22,M,2,12,46,8,4,12,1,1430.06421333337,310,688,640,396,0,310,414,17,15,429,800,21,336,0,310,36,High
P123_Exp5,22,M,2,12,47,7,3,11,1,3479.17653333332,880,357,1990,563,0,0,NA,18,21,1044,795,104,316,95,283,36,High
P123_Exp5,22,M,2,12,48,6,2,10,1,4206.63509333326,1186,1720,2116,297,0,0,NA,23,10,1262,792,146,111,140,110,36,High
P123_Exp5,22,M,3,13,49,11,3,15,2,8609.98997333331,1816,601,4282,656,0,572,190,31,15,2583,796,583,129,541,97,36,High
P123_Exp5,22,M,3,13,50,12,4,16,1,2482.54421333343,643,573,1359,373,0,986,244,23,13,745,794,53,105,46,100,36,High
P123_Exp5,22,M,3,13,51,10,2,14,1,2826.13589333334,708,809,1344,300,0,1034,317,28,20,848,791,107,69,84,60,36,High
P123_Exp5,22,M,3,13,52,9,1,13,1,3190.25834666661,681,395,1783,237,0,1103,310,21,28,957,797,97,66,75,63,36,High
P123_Exp5,22,M,3,14,53,12,4,16,1,5661.59872000003,1959,31,1570,794,0,650,260,61,18,1699,795,315,199,287,196,36,High
P123_Exp5,22,M,3,14,54,10,2,14,1,2732.66474666673,624,1053,1590,0,0,958,26,16,35,820,794,51,32,26,29,36,High
P123_Exp5,22,M,3,14,55,11,3,15,1,5731.30026666661,1305,151,2892,1104,0,794,230,36,10,1720,794,234,97,221,95,36,High
P123_Exp5,22,M,3,14,56,9,1,13,1,2401.30261333331,518,863,1253,220,0,483,170,19,21,721,793,52,120,52,107,36,High
P123_Exp5,22,M,3,15,57,10,2,14,1,2161.24501333331,857,536,684,309,0,367,320,21,19,649,802,67,157,61,157,36,High
P123_Exp5,22,M,3,15,58,12,4,16,1,1764.15189333329,200,708,1290,293,0,500,1293,9,15,529,794,35,215,34,202,36,High
P123_Exp5,22,M,3,15,59,11,3,15,1,1170.45674666667,309,1717,667,296,0,0,NA,8,22,351,798,38,131,30,125,36,High
P123_Exp5,22,M,3,15,60,9,1,13,1,1415.19658666675,444,1297,863,437,0,290,1426,8,16,424,794,0,123,0,108,36,High
P123_Exp5,22,M,3,16,61,11,3,15,1,4435.44874666668,1690,966,1838,650,0,0,NA,37,22,1331,793,154,191,133,167,36,High
P123_Exp5,22,M,3,16,62,12,4,16,1,1980.64554666666,107,955,993,788,0,0,NA,17,22,594,795,56,175,53,159,36,High
P123_Exp5,22,M,3,16,63,9,1,13,1,2209.29877333333,888,2026,1026,0,0,0,NA,13,20,662,791,46,136,32,131,36,High
P123_Exp5,22,M,3,16,64,10,2,14,1,1908.22186666674,444,999,1352,294,0,0,NA,7,11,573,791,9,278,0,257,36,High
P123_Exp5,22,M,3,17,65,9,1,13,1,1508.97450666662,297,1086,750,667,0,0,NA,8,11,453,791,33,225,28,191,36,High
P123_Exp5,22,M,3,17,66,11,3,15,1,3596.10837333332,765,551,2060,623,0,0,NA,25,11,1079,793,125,377,125,355,36,High
P123_Exp5,22,M,3,17,67,10,2,14,1,1551.72778666667,483,1310,963,309,0,280,1730,9,13,466,798,0,158,0,149,36,High
P123_Exp5,22,M,3,17,68,12,4,16,1,1301.06367999997,390,702,793,649,0,243,2126,7,12,390,794,0,196,0,194,36,High
P123_Exp5,22,M,3,18,69,9,1,13,1,1362.16661333333,434,1194,565,804,0,0,NA,10,13,409,794,0,158,0,130,36,High
P123_Exp5,22,M,3,18,70,10,2,14,1,1815.65055999999,392,1075,1173,870,0,0,NA,9,19,544,791,41,139,41,109,36,High
P123_Exp5,22,M,3,18,71,11,3,15,1,3644.0209066667,317,703,2136,733,0,623,1733,16,7,1094,785,172,125,172,125,36,High
P123_Exp5,22,M,3,18,72,12,4,16,1,2892.40064000001,2057,993,666,400,0,253,380,14,10,868,791,0,251,0,229,36,High
P124_Exp5,18,F,1,1,1,1,1,5,2,9619.44116506356,488,0,4263,513,0,690,253,48,34,2886,793,1252,314,1106,243,16,Low
P124_Exp5,18,F,1,1,2,2,2,6,2,3753.19794740881,614,517,2434,763,0,539,247,23,23,1126,788,102,85,68,50,16,Low
P124_Exp5,18,F,1,1,3,3,3,7,1,2654.54317383637,1022,601,1113,668,0,660,250,16,19,796,797,42,39,36,37,16,Low
P124_Exp5,18,F,1,1,4,4,4,8,1,1896.68691752468,528,211,969,1339,0,356,227,14,22,570,794,41,79,0,48,16,Low
P124_Exp5,18,F,1,2,5,3,3,7,1,3122.02994407699,981,136,1463,1531,0,46,2607,15,23,937,797,93,180,70,135,16,Low
P124_Exp5,18,F,1,2,6,1,1,5,1,3039.81663722016,943,0,986,494,0,324,240,19,22,912,792,203,392,172,346,16,Low
P124_Exp5,18,F,1,2,7,2,2,6,1,2962.31283885072,1322,241,347,899,0,237,270,19,21,889,794,228,202,168,164,16,Low
P124_Exp5,18,F,1,2,8,4,4,8,1,1198.38943172272,203,150,839,1150,0,246,317,9,15,360,788,6,194,0,144,16,Low
P124_Exp5,18,F,1,3,9,3,3,7,1,2097.405077036,768,570,840,943,0,186,1307,10,19,630,788,67,159,62,97,16,Low
