subj,age,sex,phase,block,trial,cue,resp,out,numResp,RT,AOI_cue_p1,AOI_cue_p2,AOI_resp_p1,AOI_resp_p2,AOI_out_p1,AOI_out_p2,tOutFix,nFix_p1,nFix_p2,samples_p1,samples_p2,raw_NA_p1,raw_NA_p2,post_interp_NA_p1,post_interp_NA_p2,ICU,ICU_medSplit
P101_Exp5,34,F,1,1,1,4,4,8,25,85465.6727447427,10318,0,50567,210,220,330,260,224,2,25644,792,4563,6,3914,0,14,Low
P101_Exp5,34,F,1,1,2,1,1,5,1,3341.96611540619,473,0,1767,127,0,530,247,10,4,1003,791,138,0,87,0,14,Low
P101_Exp5,34,F,1,1,3,3,3,7,2,4996.46596372804,961,0,2955,160,0,547,190,18,4,1499,800,61,0,56,0,14,Low
P101_Exp5,34,F,1,1,4,2,2,6,1,4047.33808093715,990,0,2266,136,0,494,187,13,3,1214,795,0,97,0,87,14,Low
P101_Exp5,34,F,1,2,5,3,3,7,3,5508.59914693319,543,0,4124,160,0,480,200,20,3,1653,791,0,58,0,58,14,Low
P101_Exp5,34,F,1,2,6,2,2,6,3,6379.45343822958,1532,247,3873,150,136,343,220,18,4,1914,795,14,99,0,96,14,Low
P101_Exp5,34,F,1,2,7,4,4,8,3,5781.84973924635,560,213,4458,133,0,291,170,13,5,1735,794,78,50,75,47,14,Low
P101_Exp5,34,F,1,2,8,1,1,5,5,6752.34397099757,496,0,4819,147,206,631,219,21,5,2026,793,5,48,0,0,14,Low
P101_Exp5,34,F,1,3,9,3,3,7,1,6496.71790727734,1098,237,3420,150,0,287,193,29,4,1949,795,333,24,150,0,14,Low
P101_Exp5,34,F,1,3,10,2,2,6,1,4822.40262413779,1253,187,2653,57,0,306,200,16,5,1447,792,55,29,48,29,14,Low
P101_Exp5,34,F,1,3,11,1,1,5,1,3810.28032079848,947,0,1976,193,0,253,190,16,6,1144,790,0,45,0,32,14,Low
P101_Exp5,34,F,1,3,12,4,4,8,1,3051.98143681719,737,170,1571,0,0,296,166,14,5,916,793,2,121,0,82,14,Low
P101_Exp5,34,F,1,4,13,1,1,5,2,8421.34347991032,1630,240,4480,103,0,217,223,26,4,2527,792,323,185,245,180,14,Low
P101_Exp5,34,F,1,4,14,2,2,6,3,5662.05644815545,427,333,4738,140,0,160,219,11,5,1699,795,25,7,0,0,14,Low
P101_Exp5,34,F,1,4,15,3,3,7,1,1751.74920502286,130,296,1314,130,0,273,167,3,5,526,793,0,117,0,68,14,Low
P101_Exp5,34,F,1,4,16,4,4,8,1,1147.73065207919,410,0,617,136,0,406,177,4,3,344,794,2,55,0,31,14,Low
P101_Exp5,34,F,1,5,17,1,1,5,1,4061.83646154386,520,0,2777,420,0,296,180,13,5,1219,795,83,73,41,70,14,Low
P101_Exp5,34,F,1,5,18,4,4,8,1,3989.19906697665,473,271,2818,30,0,229,187,12,6,1197,792,100,201,86,195,14,Low
P101_Exp5,34,F,1,5,19,3,3,7,1,3449.52190458207,537,0,2323,0,0,246,173,10,4,1035,794,19,116,0,106,14,Low
P101_Exp5,34,F,1,5,20,2,2,6,2,3690.31892512066,1237,197,2112,130,0,223,170,11,4,1107,791,0,370,0,359,14,Low
P101_Exp5,34,F,1,6,21,1,1,5,1,2683.04434846414,734,0,1281,280,0,282,183,13,7,805,793,72,213,41,109,14,Low
P101_Exp5,34,F,1,6,22,4,4,8,1,1946.36098369301,384,0,1223,424,0,130,750,5,6,584,795,0,173,0,167,14,Low
P101_Exp5,34,F,1,6,23,2,2,6,2,3208.53757969508,1009,226,1693,66,0,237,197,9,4,963,790,16,144,0,104,14,Low
P101_Exp5,34,F,1,6,24,3,3,7,1,1116.23493511979,193,0,623,160,0,283,200,6,4,334,795,0,105,0,80,14,Low
P101_Exp5,34,F,2,7,25,7,3,11,1,6365.07281616559,2411,0,2464,342,0,513,193,19,3,1910,794,214,40,156,40,14,Low
P101_Exp5,34,F,2,7,26,5,1,9,2,6369.11799278005,1424,0,3137,0,0,413,290,21,3,1911,793,207,117,169,81,14,Low
P101_Exp5,34,F,2,7,27,8,4,12,2,5164.15242222047,953,0,3346,143,0,684,183,16,4,1549,795,36,68,36,42,14,Low
P101_Exp5,34,F,2,7,28,6,2,10,1,1303.91218625937,197,0,747,150,0,503,210,3,5,391,792,0,71,0,46,14,Low
P101_Exp5,34,F,2,8,29,7,3,11,1,2404.16139917579,400,0,1549,70,0,696,193,8,4,721,797,14,42,0,29,14,Low
P101_Exp5,34,F,2,8,30,5,1,9,1,3765.76545826174,590,0,1616,53,0,377,197,13,10,1130,794,277,74,216,58,14,Low
P101_Exp5,34,F,2,8,31,8,4,12,1,2307.7717651704,777,0,956,0,0,414,27,7,3,692,792,99,201,95,148,14,Low
P101_Exp5,34,F,2,8,32,6,2,10,1,1059.82773973119,163,0,736,157,0,553,193,4,2,318,795,0,543,0,534,14,Low
P101_Exp5,34,F,2,9,33,5,1,9,1,3299.29613670902,1389,230,721,124,0,333,179,9,5,990,794,259,138,249,131,14,Low
P101_Exp5,34,F,2,9,34,7,3,11,1,1331.50736481548,333,0,867,146,0,597,190,5,4,400,793,0,46,0,0,14,Low
P101_Exp5,34,F,2,9,35,8,4,12,1,2217.08531393051,812,0,1133,134,0,450,173,7,3,666,793,0,211,0,193,14,Low
P101_Exp5,34,F,2,9,36,6,2,10,1,1211.32282523195,160,0,909,150,0,354,183,5,3,363,796,0,35,0,0,14,Low
P101_Exp5,34,F,2,10,37,5,1,9,1,1907.69522211758,357,284,1287,104,0,213,237,6,4,572,791,23,130,0,82,14,Low
P101_Exp5,34,F,2,10,38,6,2,10,1,1442.64412301618,0,0,866,116,0,668,154,2,4,433,791,151,11,151,0,14,Low
P101_Exp5,34,F,2,10,39,8,4,12,1,2261.36593936553,217,0,1827,124,0,547,163,6,3,678,795,0,74,0,49,14,Low
P101_Exp5,34,F,2,10,40,7,3,11,1,1158.57766453246,167,0,691,164,0,516,204,6,4,348,791,0,156,0,130,14,Low
P101_Exp5,34,F,2,11,41,8,4,12,1,3666.11698457837,1612,0,1733,315,0,227,196,11,5,1100,794,4,163,0,150,14,Low
P101_Exp5,34,F,2,11,42,5,1,9,1,3660.21199097759,1380,231,1592,26,0,313,191,12,7,1098,791,10,143,0,127,14,Low
P101_Exp5,34,F,2,11,43,7,3,11,1,1988.90381729689,230,0,1467,250,0,153,290,6,4,597,792,17,281,0,266,14,Low
P101_Exp5,34,F,2,11,44,6,2,10,1,545.482317232199,0,0,540,160,0,307,223,1,2,164,794,0,270,0,258,14,Low
P101_Exp5,34,F,2,12,45,8,4,12,1,3020.21009660075,888,0,1419,313,0,281,220,9,4,907,792,22,150,0,135,14,Low
P101_Exp5,34,F,2,12,46,6,2,10,1,1127.37079733142,167,0,699,146,0,143,187,6,2,338,795,0,291,0,252,14,Low
P101_Exp5,34,F,2,12,47,5,1,9,1,2972.07927880572,1367,0,1100,160,0,183,303,11,4,891,792,61,94,0,48,14,Low
P101_Exp5,34,F,2,12,48,7,3,11,1,906.17033431954,133,0,523,153,0,377,203,3,3,272,792,0,91,0,80,14,Low
P101_Exp5,34,F,3,13,49,12,4,16,1,2259.07818100677,204,0,1479,116,0,630,157,7,5,678,791,0,47,0,31,14,Low
P101_Exp5,34,F,3,13,50,9,1,13,1,2475.3955044398,503,0,1783,0,0,620,190,6,4,743,791,0,74,0,58,14,Low
P101_Exp5,34,F,3,13,51,10,2,14,1,2237.62180649283,167,0,1590,120,0,313,270,8,3,672,792,0,146,0,116,14,Low
P101_Exp5,34,F,3,13,52,11,3,15,1,1110.16866351292,170,0,533,126,0,467,167,4,3,333,791,0,0,0,0,14,Low
P101_Exp5,34,F,3,14,53,10,2,14,1,4433.51527597133,2026,0,1705,34,0,348,83,12,4,1330,794,76,72,76,66,14,Low
P101_Exp5,34,F,3,14,54,9,1,13,1,2010.10078168656,525,0,1157,76,0,597,124,8,4,603,790,0,89,0,38,14,Low
P101_Exp5,34,F,3,14,55,11,3,15,1,2533.04215115804,786,0,1527,73,0,480,217,9,4,760,794,0,59,0,47,14,Low
P101_Exp5,34,F,3,14,56,12,4,16,1,1388.60063171524,226,0,888,53,0,263,103,5,2,416,792,0,52,0,45,14,Low
P101_Exp5,34,F,3,15,57,9,1,13,1,1372.3004600688,236,0,722,50,0,387,196,5,5,412,792,46,40,44,37,14,Low
P101_Exp5,34,F,3,15,58,10,2,14,1,1649.67601467561,420,0,997,250,0,420,177,6,5,495,794,0,151,0,105,14,Low
P101_Exp5,34,F,3,15,59,11,3,15,1,4939.77162522606,1608,0,2302,0,0,353,170,14,6,1483,791,45,103,35,78,14,Low
P101_Exp5,34,F,3,15,60,12,4,16,1,1312.86695545896,233,0,716,170,0,553,210,5,3,394,795,0,312,0,304,14,Low
P101_Exp5,34,F,3,16,61,9,1,13,1,2059.92501852779,450,0,1360,146,0,200,300,6,2,618,791,8,72,0,65,14,Low
P101_Exp5,34,F,3,16,62,12,4,16,1,4820.9442955158,1214,103,3046,0,0,270,163,14,3,1446,793,13,40,0,37,14,Low
P101_Exp5,34,F,3,16,63,11,3,15,1,1527.77117637743,229,0,664,200,0,370,227,4,5,459,800,114,60,114,56,14,Low
P101_Exp5,34,F,3,16,64,10,2,14,1,1022.77561152277,147,0,763,127,0,646,163,3,5,307,791,0,240,0,207,14,Low
P101_Exp5,34,F,3,17,65,9,1,13,1,1315.88985138933,267,0,816,208,0,511,187,6,6,394,794,10,54,0,42,14,Low
P101_Exp5,34,F,3,17,66,11,3,15,1,1692.28583411677,502,0,740,97,0,570,154,10,4,508,791,0,239,0,204,14,Low
P101_Exp5,34,F,3,17,67,10,2,14,1,2667.97509492153,903,0,962,74,0,581,133,7,5,800,793,167,54,147,36,14,Low
P101_Exp5,34,F,3,17,68,12,4,16,1,1549.13923198365,194,0,1127,33,0,650,70,6,3,465,794,0,106,0,93,14,Low
P101_Exp5,34,F,3,18,69,9,1,13,1,1455.2216740567,210,0,847,140,0,140,187,10,2,437,791,0,81,0,81,14,Low
P101_Exp5,34,F,3,18,70,12,4,16,1,5208.34643539365,2542,89,1380,0,0,397,43,17,4,1563,791,241,245,158,227,14,Low
P101_Exp5,34,F,3,18,71,10,2,14,1,2012.811361481,273,0,1262,0,0,173,180,5,2,604,795,68,163,65,157,14,Low
P101_Exp5,34,F,3,18,72,11,3,15,1,831.042943895227,110,0,454,53,0,186,227,3,4,249,794,0,445,0,445,14,Low
P102_Exp5,30,F,1,1,1,4,4,8,7,14967.3561372465,3092,0,7399,79,0,504,293,87,6,4491,794,778,102,709,100,12,Low
P102_Exp5,30,F,1,1,2,1,1,5,1,1710.94970984905,298,220,925,150,0,363,229,8,6,513,796,42,40,40,32,12,Low
P102_Exp5,30,F,1,1,3,3,3,7,3,5085.37366364362,633,0,3325,184,0,683,217,20,2,1525,794,145,74,139,53,12,Low
P102_Exp5,30,F,1,1,4,2,2,6,1,3182.54622129552,598,0,1859,280,173,110,320,14,2,955,794,47,160,47,141,12,Low
P102_Exp5,30,F,1,2,5,1,1,5,2,6288.69317456974,2182,57,2330,163,0,461,200,33,4,1887,792,188,212,180,201,12,Low
P102_Exp5,30,F,1,2,6,4,4,8,2,3169.00654882556,890,257,1827,173,0,246,210,13,6,951,792,55,176,49,174,12,Low
P102_Exp5,30,F,1,2,7,2,2,6,3,5061.11668378253,732,0,3008,213,0,559,253,22,4,1519,795,177,198,167,198,12,Low
P102_Exp5,30,F,1,2,8,3,3,7,2,2590.01680619258,177,206,1605,263,0,216,300,10,7,777,791,85,124,85,115,12,Low
P102_Exp5,30,F,1,3,9,2,2,6,1,4639.24542373661,1942,0,1780,170,0,447,223,25,5,1392,791,124,197,116,186,12,Low
P102_Exp5,30,F,1,3,10,4,4,8,2,4904.87072373253,2325,166,1993,149,0,226,270,19,4,1472,792,72,169,48,152,12,Low
P102_Exp5,30,F,1,3,11,3,3,7,2,3623.39751316085,373,0,2646,510,0,131,310,11,6,1087,792,58,203,58,202,12,Low
P102_Exp5,30,F,1,3,12,1,1,5,1,953.414123088805,316,127,403,267,0,187,303,8,3,286,792,41,156,39,156,12,Low
P102_Exp5,30,F,1,4,13,2,2,6,1,6778.0963990208,1831,0,2700,176,0,490,220,42,4,2034,789,297,200,291,196,12,Low
P102_Exp5,30,F,1,4,14,3,3,7,2,6534.06827179515,3958,137,1741,143,0,234,363,24,4,1960,794,123,121,117,108,12,Low
P102_Exp5,30,F,1,4,15,4,4,8,1,2067.34508671707,1043,180,893,329,0,147,320,4,7,620,793,0,132,0,117,12,Low
P102_Exp5,30,F,1,4,16,1,1,5,1,1715.60842553845,167,147,1321,206,0,0,NA,8,5,515,793,0,509,0,473,12,Low
P102_Exp5,30,F,1,5,17,2,2,6,1,1928.69677559156,220,140,1144,330,0,0,NA,13,4,579,795,56,411,33,393,12,Low
P102_Exp5,30,F,1,5,18,1,1,5,3,11887.6340303414,5955,254,3219,187,0,147,226,57,7,3567,792,331,288,312,285,12,Low
P102_Exp5,30,F,1,5,19,3,3,7,1,1173.98099394177,453,130,647,336,0,0,NA,4,3,352,792,0,149,0,115,12,Low
P102_Exp5,30,F,1,5,20,4,4,8,1,882.372442111773,347,177,457,250,0,0,NA,3,6,264,794,0,205,0,197,12,Low
P102_Exp5,30,F,1,6,21,3,3,7,1,10044.1453737749,3540,163,4326,463,0,0,NA,44,4,3014,791,351,267,339,260,12,Low
P102_Exp5,30,F,1,6,22,2,2,6,1,1035.83998320664,476,279,503,247,0,0,NA,3,7,310,793,0,275,0,262,12,Low
P102_Exp5,30,F,1,6,23,1,1,5,1,822.549822316432,357,197,377,247,0,0,NA,4,4,247,792,0,217,0,202,12,Low
P102_Exp5,30,F,1,6,24,4,4,8,1,697.993710157789,170,66,426,210,0,116,260,4,5,210,794,7,244,0,217,12,Low
P102_Exp5,30,F,2,7,25,8,4,12,1,4556.06437296319,2192,0,1255,190,0,436,230,24,3,1367,792,147,104,137,60,12,Low
P102_Exp5,30,F,2,7,26,5,1,9,1,1856.95238330936,357,0,986,166,0,634,217,11,4,557,791,39,65,39,0,12,Low
P102_Exp5,30,F,2,7,27,6,2,10,1,2066.90818545576,1560,0,367,197,0,417,233,7,2,620,794,0,90,0,84,12,Low
P102_Exp5,30,F,2,7,28,7,3,11,1,1299.17069826115,514,0,513,137,0,780,166,6,3,389,794,46,72,44,67,12,Low
P102_Exp5,30,F,2,8,29,5,1,9,1,1500.22549054302,650,20,678,180,0,429,220,5,5,450,794,19,197,0,182,12,Low
P102_Exp5,30,F,2,8,30,6,2,10,2,2612.2817040341,976,167,1119,190,0,287,250,21,5,784,795,37,106,32,95,12,Low
P102_Exp5,30,F,2,8,31,8,4,12,1,2230.48632144855,1592,0,450,287,0,446,327,14,3,670,794,0,97,0,92,12,Low
P102_Exp5,30,F,2,8,32,7,3,11,1,1329.04467528715,529,90,584,187,0,407,223,7,4,399,795,0,232,0,220,12,Low
P102_Exp5,30,F,2,9,33,6,2,10,1,4358.57433657384,2409,294,747,336,0,0,NA,21,6,1307,792,236,180,218,156,12,Low
P102_Exp5,30,F,2,9,34,7,3,11,1,1355.50664119819,690,71,587,296,0,183,340,5,6,407,792,0,297,0,265,12,Low
P102_Exp5,30,F,2,9,35,8,4,12,1,2480.53933412666,1264,89,823,203,0,270,240,9,6,744,805,44,138,34,117,12,Low
P102_Exp5,30,F,2,9,36,5,1,9,1,1023.70445336328,393,186,566,163,0,240,203,2,6,307,806,0,240,0,236,12,Low
P102_Exp5,30,F,2,10,37,7,3,11,1,2895.01783231299,1727,46,830,196,0,470,234,6,4,869,795,64,257,55,247,12,Low
P102_Exp5,30,F,2,10,38,6,2,10,1,1655.16885337729,796,103,499,197,0,207,233,7,4,497,792,56,129,45,117,12,Low
P102_Exp5,30,F,2,10,39,5,1,9,1,1136.14764873364,613,194,326,310,0,0,NA,6,4,340,793,34,135,34,129,12,Low
P102_Exp5,30,F,2,10,40,8,4,12,1,1118.91735526206,427,0,600,174,0,246,213,5,3,336,793,0,162,0,156,12,Low
P102_Exp5,30,F,2,11,41,5,1,9,1,2213.1148030594,814,0,997,220,0,227,263,11,2,664,794,58,109,58,108,12,Low
P102_Exp5,30,F,2,11,42,7,3,11,2,6895.46326680102,3591,0,1065,216,0,314,253,23,4,2069,796,351,138,335,111,12,Low
P102_Exp5,30,F,2,11,43,6,2,10,1,820.995921543727,400,133,363,183,0,287,220,3,6,247,792,0,55,0,55,12,Low
P102_Exp5,30,F,2,11,44,8,4,12,1,897.430175798036,347,0,453,949,0,0,NA,5,2,269,795,0,155,0,143,12,Low
P102_Exp5,30,F,2,12,45,7,3,11,1,3585.05345427147,23,0,130,247,0,177,413,2,3,1076,793,977,276,965,258,12,Low
P102_Exp5,30,F,2,12,46,5,1,9,1,933.383650933138,305,226,492,100,0,0,NA,5,13,280,793,0,362,0,319,12,Low
P102_Exp5,30,F,2,12,47,6,2,10,1,955.145088338213,400,66,494,247,0,0,NA,3,7,286,792,0,97,0,93,12,Low
P102_Exp5,30,F,2,12,48,8,4,12,1,864.226533303736,97,0,526,193,0,630,240,6,2,259,795,19,168,0,154,12,Low
P102_Exp5,30,F,3,13,49,11,3,15,1,4670.10541522905,2366,0,1183,163,0,613,213,25,3,1402,792,190,32,181,31,12,Low
P102_Exp5,30,F,3,13,50,12,4,16,3,3974.44170290782,576,83,2857,297,0,223,677,12,6,1193,791,61,98,37,96,12,Low
P102_Exp5,30,F,3,13,51,10,2,14,1,1526.38623351413,140,0,1133,273,0,329,313,9,3,458,795,0,70,0,67,12,Low
P102_Exp5,30,F,3,13,52,9,1,13,1,2498.10242347939,1299,0,1003,207,0,247,253,9,5,750,794,0,38,0,32,12,Low
P102_Exp5,30,F,3,14,53,10,2,14,1,1281.40110479671,558,129,513,313,0,167,350,7,5,385,794,4,471,0,437,12,Low
P102_Exp5,30,F,3,14,54,12,4,16,1,1595.13887614867,490,0,1017,399,0,203,264,4,4,478,793,0,227,0,215,12,Low
P102_Exp5,30,F,3,14,55,11,3,15,1,2141.14726687058,1230,90,457,280,0,180,320,11,5,643,791,61,112,45,110,12,Low
P102_Exp5,30,F,3,14,56,9,1,13,1,828.702279523895,384,71,370,213,0,260,253,3,5,248,795,0,262,0,253,12,Low
P102_Exp5,30,F,3,15,57,12,4,16,1,1779.20443864332,867,139,556,360,0,0,NA,14,9,534,795,54,445,48,425,12,Low
P102_Exp5,30,F,3,15,58,11,3,15,1,1742.93011414466,780,273,689,370,0,0,NA,6,6,523,790,42,62,42,46,12,Low
P102_Exp5,30,F,3,15,59,9,1,13,1,2612.50783457035,1694,333,523,300,0,0,NA,12,6,784,800,52,228,45,220,12,Low
P102_Exp5,30,F,3,15,60,10,2,14,1,815.005595663933,294,0,473,227,0,446,376,2,3,245,794,0,127,0,94,12,Low
P102_Exp5,30,F,3,16,61,9,1,13,1,2863.40051685693,1749,518,708,0,0,0,NA,12,5,859,794,34,216,29,205,12,Low
P102_Exp5,30,F,3,16,62,12,4,16,1,1175.54470792675,616,267,463,234,0,0,NA,7,5,353,791,0,150,0,147,12,Low
P102_Exp5,30,F,3,16,63,11,3,15,1,2524.96203780356,1043,163,974,367,0,0,NA,8,6,758,796,88,135,86,131,12,Low
P102_Exp5,30,F,3,16,64,10,2,14,1,731.382523694265,142,0,383,290,0,157,426,6,2,219,794,0,114,0,112,12,Low
P102_Exp5,30,F,3,17,65,9,1,13,1,1181.69503182708,554,152,557,354,0,0,NA,3,10,355,794,0,179,0,159,12,Low
P102_Exp5,30,F,3,17,66,11,3,15,1,1546.43505211061,429,240,653,337,0,0,NA,12,4,464,794,53,54,53,54,12,Low
P102_Exp5,30,F,3,17,67,10,2,14,1,1016.42518343215,446,153,507,446,0,0,NA,5,6,305,794,0,58,0,53,12,Low
P102_Exp5,30,F,3,17,68,12,4,16,1,883.80858434175,266,0,483,257,0,410,296,6,3,266,793,0,63,0,58,12,Low
P102_Exp5,30,F,3,18,69,9,1,13,1,1134.71150650275,152,0,400,92,0,300,407,18,10,341,793,2,379,0,375,12,Low
P102_Exp5,30,F,3,18,70,11,3,15,1,1580.45788446816,943,116,454,377,0,0,NA,3,4,474,794,41,428,41,418,12,Low
P102_Exp5,30,F,3,18,71,12,4,16,1,1034.11755118577,333,0,503,463,0,0,NA,4,1,310,794,15,39,0,38,12,Low
P102_Exp5,30,F,3,18,72,10,2,14,1,843.85643868336,170,0,373,287,0,134,316,7,5,253,795,0,294,0,276,12,Low
P103_Exp5,19,F,1,1,1,1,1,5,4,4727.12552783742,244,0,3516,197,0,336,217,24,2,1419,790,263,113,0,81,16,Low
P103_Exp5,19,F,1,1,2,2,2,6,1,1891.60745622667,408,256,823,126,0,299,147,12,5,568,791,12,34,0,0,16,Low
P103_Exp5,19,F,1,1,3,3,3,7,1,1731.1937788827,404,0,1193,293,0,370,170,5,3,519,799,2,21,0,0,16,Low
P103_Exp5,19,F,1,1,4,4,4,8,1,3369.27260866014,373,0,2496,393,0,281,260,10,6,1011,793,63,156,40,0,16,Low
P103_Exp5,19,F,1,2,5,2,2,6,1,3627.51289701646,1423,0,1641,170,0,396,204,13,2,1089,790,66,71,0,0,16,Low
P103_Exp5,19,F,1,2,6,1,1,5,1,2293.90905805576,199,0,1916,650,0,0,NA,6,4,688,790,7,108,0,62,16,Low
P103_Exp5,19,F,1,2,7,3,3,7,1,3149.5917455677,1063,0,1453,123,0,216,234,23,5,945,794,100,278,0,224,16,Low
P103_Exp5,19,F,1,2,8,4,4,8,1,939.227966698127,290,330,567,187,0,187,220,3,4,282,790,2,413,0,398,16,Low
P103_Exp5,19,F,1,3,9,2,2,6,1,1184.93667651001,480,217,567,0,0,237,263,4,2,355,793,4,8,0,0,16,Low
P103_Exp5,19,F,1,3,10,1,1,5,1,1165.50805778206,150,0,749,659,0,207,260,4,4,350,794,0,2,0,0,16,Low
P103_Exp5,19,F,1,3,11,4,4,8,1,4968.98102577961,2059,0,2013,395,0,213,283,23,8,1491,798,104,122,0,0,16,Low
P103_Exp5,19,F,1,3,12,3,3,7,1,893.471129071258,196,219,653,0,0,0,NA,3,2,268,796,0,60,0,57,16,Low
P103_Exp5,19,F,1,4,13,2,2,6,1,4345.00902183208,1466,0,2464,174,0,547,206,13,2,1304,795,20,0,0,0,16,Low
P103_Exp5,19,F,1,4,14,1,1,5,1,1277.86687965818,113,103,869,0,0,223,320,3,3,383,795,56,8,48,0,16,Low
P103_Exp5,19,F,1,4,15,3,3,7,1,1341.59314161479,486,936,620,0,0,0,NA,6,2,403,791,0,4,0,0,16,Low
P103_Exp5,19,F,1,4,16,4,4,8,1,731.271431917776,217,197,450,0,0,0,NA,3,1,219,799,0,49,0,44,16,Low
P103_Exp5,19,F,1,5,17,1,1,5,1,1053.43510147668,0,236,940,413,0,0,NA,3,3,316,793,23,4,0,0,16,Low
P103_Exp5,19,F,1,5,18,4,4,8,1,2022.5449800937,713,0,923,210,0,496,237,13,2,607,791,11,0,0,0,16,Low
P103_Exp5,19,F,1,5,19,2,2,6,1,1361.80767732549,203,0,1000,417,0,234,300,4,3,409,800,2,185,0,166,16,Low
P103_Exp5,19,F,1,5,20,3,3,7,1,677.462145211393,203,0,384,207,0,0,NA,3,1,203,795,0,84,0,74,16,Low
P103_Exp5,19,F,1,6,21,2,2,6,1,1007.9893026541,163,0,656,187,0,223,220,4,3,303,791,51,2,31,0,16,Low
P103_Exp5,19,F,1,6,22,3,3,7,1,1292.06543846885,389,0,849,617,0,0,NA,3,5,388,790,0,67,0,56,16,Low
P103_Exp5,19,F,1,6,23,1,1,5,1,1443.75722930545,180,0,1000,523,0,317,393,5,3,434,791,0,30,0,0,16,Low
P103_Exp5,19,F,1,6,24,4,4,8,1,822.452735113984,327,0,434,590,0,0,NA,3,1,247,791,0,37,0,0,16,Low
P103_Exp5,19,F,2,7,25,7,3,11,1,4664.90966008041,1140,0,3185,150,0,406,224,16,4,1400,794,57,29,0,0,16,Low
P103_Exp5,19,F,2,7,26,5,1,9,1,2393.10270381884,650,0,1486,210,0,362,257,8,4,718,791,11,12,0,0,16,Low
P103_Exp5,19,F,2,7,27,6,2,10,1,1196.63113827028,240,0,890,203,0,743,233,4,2,359,794,0,39,0,0,16,Low
P103_Exp5,19,F,2,7,28,8,4,12,1,1025.67499474117,194,146,709,246,0,220,500,5,3,308,791,0,0,0,0,16,Low
P103_Exp5,19,F,2,8,29,7,3,11,1,1260.91803807412,127,0,669,146,0,747,180,4,5,378,796,111,24,84,0,16,Low
P103_Exp5,19,F,2,8,30,8,4,12,1,2342.31633883883,506,0,1506,0,167,440,70,6,3,702,791,0,22,0,0,16,Low
P103_Exp5,19,F,2,8,31,5,1,9,1,2419.8938542740502,503,0,1739,186,0,180,223,5,2,726,793,0,6,0,0,16,Low
P103_Exp5,19,F,2,8,32,6,2,10,1,1310.09246257872,246,0,838,163,0,0,NA,4,1,393,790,2,13,0,0,16,Low
P103_Exp5,19,F,2,9,33,7,3,11,1,2454.88593323807,653,163,1420,167,0,393,230,9,3,737,792,2,41,0,36,16,Low
P103_Exp5,19,F,2,9,34,5,1,9,1,2176.76220123303,464,0,1547,230,0,0,NA,7,2,653,796,0,65,0,46,16,Low
P103_Exp5,19,F,2,9,35,8,4,12,1,1731.32135172636,436,0,1143,538,0,0,NA,5,3,519,794,0,117,0,105,16,Low
P103_Exp5,19,F,2,9,36,6,2,10,1,1169.96670732806,0,0,550,353,314,297,386,3,2,351,798,2,46,0,46,16,Low
P103_Exp5,19,F,2,10,37,5,1,9,1,2143.21011673928,317,0,1687,210,0,316,237,8,2,643,790,0,0,0,0,16,Low
P103_Exp5,19,F,2,10,38,6,2,10,1,1540.77915007474,214,0,1199,363,0,404,237,6,4,463,791,2,7,0,0,16,Low
P103_Exp5,19,F,2,10,39,8,4,12,1,1067.43867436853,233,0,740,213,0,490,246,4,3,320,793,6,2,0,0,16,Low
P103_Exp5,19,F,2,10,40,7,3,11,1,797.814963058045,284,86,177,210,237,313,374,6,3,240,794,0,50,0,41,16,Low
P103_Exp5,19,F,2,11,41,6,2,10,1,1711.11108266632,274,0,952,377,0,406,227,10,3,513,795,0,77,0,65,16,Low
P103_Exp5,19,F,2,11,42,5,1,9,1,1270.40578830838,0,0,1217,233,0,277,530,2,3,381,793,0,2,0,0,16,Low
P103_Exp5,19,F,2,11,43,8,4,12,1,1472.79690446067,197,0,1003,664,186,0,NA,4,1,442,791,0,16,0,0,16,Low
P103_Exp5,19,F,2,11,44,7,3,11,1,953.126153329322,0,NA,717,NA,0,NA,NA,3,NA,286,793,0,0,0,0,16,Low
P103_Exp5,19,F,2,12,45,8,4,12,1,1512.33808595498,240,0,922,356,0,150,240,7,5,454,794,0,111,0,104,16,Low
P103_Exp5,19,F,2,12,46,5,1,9,1,2183.69252128741,300,NA,1762,NA,0,NA,NA,6,NA,656,798,4,101,0,89,16,Low
P103_Exp5,19,F,2,12,47,7,3,11,1,2129.63534220034,480,0,1326,326,0,0,NA,9,1,639,795,1,28,0,26,16,Low
P103_Exp5,19,F,2,12,48,6,2,10,1,473.147196448735,163,0,240,196,0,0,NA,2,1,142,797,2,4,0,0,16,Low
P103_Exp5,19,F,3,13,49,10,2,14,1,2172.20755205562,373,0,1262,144,0,0,NA,8,1,651,792,160,70,44,0,16,Low
P103_Exp5,19,F,3,13,50,12,4,16,1,1696.76831107608,457,0,1014,93,0,340,146,9,3,509,795,20,40,0,0,16,Low
P103_Exp5,19,F,3,13,51,11,3,15,1,1423.77095938627,216,0,763,80,0,570,140,5,3,427,791,53,142,40,131,16,Low
P103_Exp5,19,F,3,13,52,9,1,13,1,1284.17896208612,214,0,850,490,0,296,250,5,4,385,799,2,4,0,0,16,Low
P103_Exp5,19,F,3,14,53,12,4,16,1,1511.49883584458,427,0,643,157,0,563,234,7,3,453,795,43,27,0,0,16,Low
P103_Exp5,19,F,3,14,54,10,2,14,1,862.822500094808,230,0,413,233,0,393,260,4,3,259,800,0,2,0,0,16,Low
P103_Exp5,19,F,3,14,55,9,1,13,1,1766.60868288945,420,0,1263,190,0,626,224,3,3,530,793,0,0,0,0,16,Low
P103_Exp5,19,F,3,14,56,11,3,15,1,1090.90909090901,266,393,273,0,0,0,NA,7,2,328,791,5,0,0,0,16,Low
P103_Exp5,19,F,3,15,57,12,4,16,1,1221.69386869518,193,0,671,180,153,563,147,9,4,367,792,25,17,0,0,16,Low
P103_Exp5,19,F,3,15,58,11,3,15,1,1328.0670068898,237,0,763,204,0,143,227,5,2,399,795,0,70,0,66,16,Low
P103_Exp5,19,F,3,15,59,9,1,13,1,1166.77269292541,164,0,547,0,177,296,227,6,5,350,793,0,239,0,185,16,Low
P103_Exp5,19,F,3,15,60,10,2,14,1,1083.11648083236,130,637,709,210,0,0,NA,5,3,325,814,18,40,0,40,16,Low
P103_Exp5,19,F,3,16,61,12,4,16,1,1008.60114030456,147,0,505,140,0,578,166,9,4,303,791,5,43,0,38,16,Low
P103_Exp5,19,F,3,16,62,9,1,13,1,2530.74142861988,778,0,1277,263,0,200,313,10,2,760,794,30,23,0,0,16,Low
P103_Exp5,19,F,3,16,63,10,2,14,1,1026.24672587899,213,0,340,332,110,307,293,4,4,308,791,26,95,0,33,16,Low
P103_Exp5,19,F,3,16,64,11,3,15,1,901.63493772161,167,0,656,226,0,590,260,4,4,270,793,22,36,0,0,16,Low
P103_Exp5,19,F,3,17,65,12,4,16,1,1286.66769919619,202,0,816,230,0,0,NA,5,1,386,793,1,96,0,63,16,Low
P103_Exp5,19,F,3,17,66,10,2,14,1,1559.40393188939,150,0,1080,933,0,0,NA,4,2,468,790,3,0,0,0,16,Low
P103_Exp5,19,F,3,17,67,9,1,13,1,1597.4095459469,207,0,1060,314,0,133,710,4,5,480,794,1,89,0,75,16,Low
P103_Exp5,19,F,3,17,68,11,3,15,1,929.333178027264,142,0,699,224,0,0,NA,5,1,279,794,0,250,0,245,16,Low
P103_Exp5,19,F,3,18,69,9,1,13,1,1877.22457812379,330,0,1274,383,0,0,NA,7,3,564,790,0,81,0,46,16,Low
P103_Exp5,19,F,3,18,70,12,4,16,1,1238.49679083924,296,240,644,134,0,316,160,4,4,372,792,2,73,0,54,16,Low
P103_Exp5,19,F,3,18,71,11,3,15,1,585.149753025689,327,0,210,247,0,0,NA,3,1,176,793,0,38,0,38,16,Low
P103_Exp5,19,F,3,18,72,10,2,14,1,852.991284513337,150,143,447,307,0,294,336,3,3,256,797,44,0,39,0,16,Low
P104_Exp5,37,F,1,1,1,2,2,6,2,13019.2002710164,4902,0,3958,137,177,450,213,52,5,3906,799,651,51,630,48,22,High
P104_Exp5,37,F,1,1,2,1,1,5,3,6935.74793420339,477,0,5136,200,0,190,243,27,2,2081,803,148,0,119,0,22,High
P104_Exp5,37,F,1,1,3,4,4,8,2,5059.66671630176,2271,0,2096,197,0,150,240,16,2,1518,791,20,0,0,0,22,High
P104_Exp5,37,F,1,1,4,3,3,7,1,2828.14304652038,1566,0,367,167,0,0,NA,10,3,849,795,47,23,47,0,22,High
P104_Exp5,37,F,1,2,5,1,1,5,1,5306.79815288977,3211,0,1061,864,0,0,NA,25,2,1592,791,193,0,46,0,22,High
P104_Exp5,37,F,1,2,6,2,2,6,1,3608.57277316995,2696,369,546,373,0,0,NA,11,3,1083,792,57,6,54,0,22,High
P104_Exp5,37,F,1,2,7,4,4,8,3,8572.46853252173,2663,0,4598,180,0,630,224,28,4,2572,792,14,0,0,0,22,High
P104_Exp5,37,F,1,2,8,3,3,7,1,2015.0624912269,680,137,794,321,0,360,216,11,6,605,799,0,0,0,0,22,High
P104_Exp5,37,F,1,3,9,2,2,6,1,2488.9658494501,800,147,1326,143,0,296,223,10,5,747,792,31,8,31,0,22,High
P104_Exp5,37,F,1,3,10,4,4,8,1,2872.56465974247,1206,0,1250,626,0,170,263,12,8,862,801,65,0,60,0,22,High
P104_Exp5,37,F,1,3,11,1,1,5,1,2903.31811710098,1656,50,1007,93,0,103,237,7,3,872,792,2,0,0,0,22,High
P104_Exp5,37,F,1,3,12,3,3,7,1,2600.19652107349,972,0,1126,193,0,240,684,12,6,780,794,2,0,0,0,22,High
P104_Exp5,37,F,1,4,13,1,1,5,1,1694.4523969725701,837,240,538,180,0,177,226,4,4,508,795,19,50,0,50,22,High
P104_Exp5,37,F,1,4,14,3,3,7,1,1422.38505586511,374,256,920,198,0,0,NA,6,7,427,792,0,99,0,49,22,High
P104_Exp5,37,F,1,4,15,4,4,8,1,1354.72864433314,300,210,864,304,0,0,NA,7,3,406,792,2,42,0,40,22,High
P104_Exp5,37,F,1,4,16,2,2,6,1,1431.74220667652,343,50,663,184,0,327,219,7,5,430,794,0,138,0,114,22,High
P104_Exp5,37,F,1,5,17,1,1,5,1,1425.55943013144,266,583,684,0,0,0,NA,6,1,428,791,0,0,0,0,22,High
P104_Exp5,37,F,1,5,18,3,3,7,1,1580.93865052388,627,0,700,223,0,344,270,4,3,475,794,58,8,43,0,22,High
P104_Exp5,37,F,1,5,19,2,2,6,1,1456.57485869992,451,0,866,47,0,218,73,6,3,437,797,0,0,0,0,22,High
P104_Exp5,37,F,1,5,20,4,4,8,1,1496.93506484641,217,0,1106,0,0,374,3,4,2,449,794,0,34,0,0,22,High
P104_Exp5,37,F,1,6,21,2,2,6,1,1649.67579996141,284,0,902,50,180,446,244,10,4,495,794,0,7,0,0,22,High
P104_Exp5,37,F,1,6,22,1,1,5,1,1338.63704144892,689,0,527,143,0,597,186,3,3,401,793,3,382,0,381,22,High
P104_Exp5,37,F,1,6,23,4,4,8,1,1936.36019590667,490,0,1218,30,0,545,76,5,4,581,793,9,14,0,0,22,High
P104_Exp5,37,F,1,6,24,3,3,7,1,1518.96581958385,0,0,1158,133,0,560,214,10,4,456,792,30,31,0,0,22,High
P104_Exp5,37,F,2,7,25,7,3,11,1,5640.07118448967,2400,0,1830,150,0,613,236,27,5,1692,792,199,45,160,40,22,High
P104_Exp5,37,F,2,7,26,5,1,9,1,1887.45179239072,773,0,893,54,0,350,240,8,4,566,793,0,0,0,0,22,High
P104_Exp5,37,F,2,7,27,6,2,10,1,1665.06895517432,606,0,930,94,0,358,243,5,4,500,794,0,0,0,0,22,High
P104_Exp5,37,F,2,7,28,8,4,12,1,1401.36890623603,670,0,590,64,0,623,250,5,4,420,794,4,0,0,0,22,High
P104_Exp5,37,F,2,8,29,5,1,9,1,1883.30291935767,886,0,0,0,0,446,230,2,4,565,793,272,60,253,33,22,High
P104_Exp5,37,F,2,8,30,8,4,12,1,2267.94534785654,420,0,1464,20,0,560,206,7,5,681,793,0,45,0,43,22,High
P104_Exp5,37,F,2,8,31,6,2,10,1,1958.18828562028,333,0,1045,117,0,757,163,15,6,587,792,37,0,36,0,22,High
P104_Exp5,37,F,2,8,32,7,3,11,1,1514.12191218515,367,0,826,293,0,463,260,9,5,455,794,0,9,0,0,22,High
P104_Exp5,37,F,2,9,33,6,2,10,1,1869.43337846014,667,0,849,33,119,694,220,7,5,561,793,0,0,0,0,22,High
P104_Exp5,37,F,2,9,34,5,1,9,1,1413.72336608242,337,0,881,157,0,643,200,6,4,424,795,0,0,0,0,22,High
P104_Exp5,37,F,2,9,35,7,3,11,1,1825.10989777597,670,0,780,178,0,0,NA,12,3,548,791,0,0,0,0,22,High
P104_Exp5,37,F,2,9,36,8,4,12,1,1732.41262257511,540,0,990,150,0,480,179,6,4,520,793,0,0,0,0,22,High
P104_Exp5,37,F,2,10,37,7,3,11,1,1411.09128075323,723,0,468,120,0,684,213,8,5,423,795,0,0,0,0,22,High
P104_Exp5,37,F,2,10,38,6,2,10,1,1133.48499788162,420,0,573,160,0,164,210,5,2,340,799,0,0,0,0,22,High
P104_Exp5,37,F,2,10,39,8,4,12,1,2276.54389148415,743,0,1408,187,0,0,NA,7,1,684,790,0,0,0,0,22,High
P104_Exp5,37,F,2,10,40,5,1,9,1,2219.76611176274,660,0,349,80,0,350,233,15,11,666,793,2,0,0,0,22,High
P104_Exp5,37,F,2,11,41,7,3,11,1,1785.74595021951,181,270,371,0,0,328,443,10,4,536,793,253,249,78,152,22,High
P104_Exp5,37,F,2,11,42,5,1,9,1,1533.4058091903,567,0,582,50,0,504,236,6,8,460,794,3,518,0,504,22,High
P104_Exp5,37,F,2,11,43,6,2,10,1,1603.05388457664,567,0,841,200,0,514,303,7,7,481,793,21,33,0,28,22,High
P104_Exp5,37,F,2,11,44,8,4,12,1,1679.06948167638,363,0,1121,313,0,241,613,9,6,504,800,0,77,0,48,22,High
P104_Exp5,37,F,2,12,45,6,2,10,1,1480.10106798074,533,0,600,186,0,530,247,6,6,444,795,0,304,0,250,22,High
P104_Exp5,37,F,2,12,46,8,4,12,1,1551.77792692029,424,0,942,43,0,570,276,7,4,465,791,0,126,0,27,22,High
P104_Exp5,37,F,2,12,47,7,3,11,1,1021.78499672982,413,0,389,43,0,393,93,5,8,307,792,0,36,0,31,22,High
P104_Exp5,37,F,2,12,48,5,1,9,1,874.18128663694,0,0,763,0,0,460,4,3,2,262,791,0,0,0,0,22,High
P104_Exp5,37,F,3,13,49,11,3,15,1,2454.77604661528,873,0,1017,0,0,236,137,9,4,736,792,37,34,0,30,22,High
P104_Exp5,37,F,3,13,50,9,1,13,1,1911.9862068319,894,0,823,190,0,159,267,8,7,574,795,0,443,0,414,22,High
P104_Exp5,37,F,3,13,51,12,4,16,1,2071.2830487987,0,0,1564,30,0,160,237,11,3,621,792,16,0,0,0,22,High
P104_Exp5,37,F,3,13,52,10,2,14,1,1728.51590749769,1500,246,174,0,0,340,310,3,4,519,795,0,0,0,0,22,High
P104_Exp5,37,F,3,14,53,12,4,16,1,1344.47464745881,410,0,760,127,0,289,247,7,3,404,795,0,263,0,240,22,High
P104_Exp5,37,F,3,14,54,10,2,14,1,1966.46853849506,446,117,788,287,0,0,NA,8,4,590,793,173,44,168,44,22,High
P104_Exp5,37,F,3,14,55,11,3,15,1,1499.73866878554,0,244,1000,659,0,0,NA,6,5,450,794,15,0,0,0,22,High
P104_Exp5,37,F,3,14,56,9,1,13,1,1626.76569235282,820,0,766,955,0,0,NA,2,2,488,790,0,0,0,0,22,High
P104_Exp5,37,F,3,15,57,12,4,16,1,2271.16324176995,1417,0,673,206,0,200,247,4,2,682,792,26,34,0,0,22,High
P104_Exp5,37,F,3,15,58,10,2,14,1,1728.39089517765,828,0,813,47,0,603,193,5,5,519,795,0,15,0,0,22,High
P104_Exp5,37,F,3,15,59,11,3,15,1,1927.03120486703,810,0,969,40,0,620,243,5,4,578,790,15,0,0,0,22,High
P104_Exp5,37,F,3,15,60,9,1,13,1,1485.30209248474,477,0,623,144,0,166,207,7,3,446,792,4,713,0,635,22,High
P104_Exp5,37,F,3,16,61,12,4,16,1,1444.02157379864,494,184,661,502,0,0,NA,7,4,433,795,0,129,0,117,22,High
P104_Exp5,37,F,3,16,62,10,2,14,1,2511.08663012428,1170,0,640,79,0,0,NA,8,4,754,795,108,174,102,119,22,High
P104_Exp5,37,F,3,16,63,11,3,15,1,1237.25162334677,444,0,583,523,0,0,NA,5,1,371,793,19,14,0,0,22,High
P104_Exp5,37,F,3,16,64,9,1,13,1,1631.950930318,0,0,1496,0,0,540,37,3,3,490,794,0,22,0,0,22,High
P104_Exp5,37,F,3,17,65,10,2,14,1,1877.36803413645,894,0,469,189,0,333,254,12,4,563,796,5,64,0,0,22,High
P104_Exp5,37,F,3,17,66,9,1,13,1,2021.00206974319,220,0,1447,417,0,364,233,8,5,606,792,6,22,0,0,22,High
P104_Exp5,37,F,3,17,67,12,4,16,1,1633.26547966108,486,120,943,180,0,310,226,6,5,490,794,8,62,0,0,22,High
P104_Exp5,37,F,3,17,68,11,3,15,1,811.890591606698,0,0,770,243,0,561,286,4,5,243,795,0,45,0,29,22,High
P104_Exp5,37,F,3,18,69,12,4,16,1,1825.35906908925,373,180,953,173,0,227,213,6,5,548,791,49,50,36,41,22,High
P104_Exp5,37,F,3,18,70,11,3,15,1,1643.70464836747,316,0,973,110,0,420,150,6,4,493,790,0,32,0,0,22,High
P104_Exp5,37,F,3,18,71,10,2,14,1,1303.2709281506,670,0,467,409,0,284,243,5,5,391,793,0,86,0,44,22,High
P104_Exp5,37,F,3,18,72,9,1,13,1,526.370559555744,520,293,0,0,0,397,517,1,4,158,790,0,34,0,31,22,High
P105_Exp5,28,M,1,1,1,2,2,6,2,4894.3671256302,336,0,1394,0,490,163,260,40,4,1469,790,17,5,0,0,16,Low
P105_Exp5,28,M,1,1,2,3,3,7,1,1084.77578112706,0,0,497,131,240,0,NA,8,3,325,804,7,27,0,26,16,Low
P105_Exp5,28,M,1,1,3,1,1,5,4,4938.31362354194,376,0,2593,84,0,796,137,23,3,1482,792,2,0,0,0,16,Low
P105_Exp5,28,M,1,1,4,4,4,8,4,3208.48431942068,133,0,1678,0,0,770,17,17,2,963,791,2,38,0,0,16,Low
P105_Exp5,28,M,1,2,5,2,2,6,3,6413.18070671878,569,233,4149,166,0,380,167,23,4,1924,795,3,5,0,0,16,Low
P105_Exp5,28,M,1,2,6,4,4,8,1,3287.11996412585,600,260,2391,130,0,260,140,16,3,986,793,2,8,0,0,16,Low
P105_Exp5,28,M,1,2,7,3,3,7,1,2143.48275569228,351,0,1683,0,0,483,4,6,2,643,796,0,47,0,39,16,Low
P105_Exp5,28,M,1,2,8,1,1,5,1,1892.45225298328,214,0,1577,341,0,430,137,9,3,568,791,0,0,0,0,16,Low
P105_Exp5,28,M,1,3,9,2,2,6,1,2304.38880448037,197,0,1945,233,0,508,4,11,8,691,792,10,2,0,0,16,Low
P105_Exp5,28,M,1,3,10,3,3,7,1,1032.28104937443,0,229,1019,0,0,347,3,2,3,310,799,0,0,0,0,16,Low
P105_Exp5,28,M,1,3,11,1,1,5,1,1402.34000168039,186,428,902,0,0,350,4,6,7,420,793,0,0,0,0,16,Low
P105_Exp5,28,M,1,3,12,4,4,8,1,693.354990849912,273,0,369,0,0,473,194,4,5,208,791,0,71,0,48,16,Low
P105_Exp5,28,M,1,4,13,1,1,5,1,1608.57835639217,407,277,1106,117,0,546,127,8,3,482,791,1,0,0,0,16,Low
P105_Exp5,28,M,1,4,14,3,3,7,1,1116.56957903961,187,NA,896,NA,0,NA,NA,4,NA,335,794,0,0,0,0,16,Low
P105_Exp5,28,M,1,4,15,2,2,6,1,964.954161242531,130,0,817,791,0,0,NA,4,7,289,795,0,2,0,0,16,Low
P105_Exp5,28,M,1,4,16,4,4,8,1,649.354306479836,0,234,619,0,0,399,4,2,4,195,794,0,2,0,0,16,Low
P105_Exp5,28,M,1,5,17,1,1,5,1,1445.59402225241,210,0,1124,317,0,453,7,8,4,433,795,1,76,0,75,16,Low
P105_Exp5,28,M,1,5,18,4,4,8,1,1855.64898097437,193,0,1563,523,0,383,3,5,2,557,792,0,16,0,0,16,Low
P105_Exp5,28,M,1,5,19,3,3,7,1,1192.58635380174,0,NA,1172,NA,0,NA,NA,2,NA,358,790,0,172,0,157,16,Low
P105_Exp5,28,M,1,5,20,2,2,6,1,766.225964359364,0,0,760,603,0,0,NA,1,1,230,794,0,1,0,0,16,Low
P105_Exp5,28,M,1,6,21,4,4,8,1,1654.6253262386,380,0,467,13,0,277,3,7,3,497,792,0,55,0,54,16,Low
P105_Exp5,28,M,1,6,22,3,3,7,1,967.923749839429,0,0,953,587,0,0,NA,2,4,290,793,0,1,0,0,16,Low
P105_Exp5,28,M,1,6,23,1,1,5,1,1148.3424703647,170,0,797,0,0,390,3,4,1,345,794,0,1,0,0,16,Low
P105_Exp5,28,M,1,6,24,2,2,6,1,747.384863375373,200,NA,524,NA,0,NA,NA,3,NA,224,794,0,0,0,0,16,Low
P105_Exp5,28,M,2,7,25,7,3,11,3,5541.03472242696,906,NA,4156,NA,0,NA,NA,18,NA,1663,791,2,40,0,38,16,Low
P105_Exp5,28,M,2,7,26,6,2,10,1,1114.37481413395,260,10,799,140,0,753,153,6,6,334,795,2,66,0,62,16,Low
P105_Exp5,28,M,2,7,27,5,1,9,1,1200.75784242272,380,23,767,137,0,406,147,3,3,361,793,1,44,0,43,16,Low
P105_Exp5,28,M,2,7,28,8,4,12,1,588.774272440787,214,93,330,0,0,390,3,2,3,177,797,0,68,0,57,16,Low
P105_Exp5,28,M,2,8,29,5,1,9,1,2102.85955168638,743,100,985,144,0,430,3,10,6,631,792,1,54,0,34,16,Low
P105_Exp5,28,M,2,8,30,8,4,12,1,1278.77439617259,210,0,847,224,0,336,4,4,2,384,795,0,68,0,68,16,Low
P105_Exp5,28,M,2,8,31,7,3,11,1,1183.47620211807,390,0,754,0,0,444,3,3,1,355,793,0,64,0,59,16,Low
P105_Exp5,28,M,2,8,32,6,2,10,1,907.175609779188,280,0,600,394,0,226,714,3,2,272,792,0,253,0,185,16,Low
P105_Exp5,28,M,2,9,33,8,4,12,1,2682.46393933805,497,0,833,693,0,190,154,14,6,805,794,136,82,120,82,16,Low
P105_Exp5,28,M,2,9,34,6,2,10,1,922.902909385812,0,0,887,910,0,0,NA,4,4,277,802,0,0,0,0,16,Low
P105_Exp5,28,M,2,9,35,5,1,9,1,1105.0082367683,0,395,766,33,0,0,NA,10,8,331,793,0,135,0,130,16,Low
P105_Exp5,28,M,2,9,36,7,3,11,1,641.040738403717,263,0,350,0,0,674,3,3,1,193,789,0,329,0,329,16,Low
P105_Exp5,28,M,2,10,37,5,1,9,1,1144.29469924198,196,0,837,267,0,187,310,6,3,343,806,0,64,0,59,16,Low
P105_Exp5,28,M,2,10,38,8,4,12,1,1227.03443485443,350,NA,656,NA,0,NA,NA,5,NA,368,791,0,49,0,42,16,Low
P105_Exp5,28,M,2,10,39,6,2,10,1,1022.38882069378,377,0,634,47,0,543,57,2,3,307,791,0,76,0,63,16,Low
P105_Exp5,28,M,2,10,40,7,3,11,1,497.474771088491,200,0,267,0,0,960,3,3,1,150,794,0,57,0,50,16,Low
P105_Exp5,28,M,2,11,41,6,2,10,1,1242.39949585262,206,0,839,0,26,816,3,10,3,373,796,3,45,0,36,16,Low
P105_Exp5,28,M,2,11,42,8,4,12,1,1851.46382371204,677,0,354,0,0,640,3,4,1,556,793,0,2,0,0,16,Low
P105_Exp5,28,M,2,11,43,7,3,11,1,1430.41541387174,645,0,713,0,0,574,6,5,1,429,795,0,43,0,38,16,Low
P105_Exp5,28,M,2,11,44,5,1,9,1,896.092132339618,367,0,476,0,0,550,0,4,1,269,795,1,102,0,102,16,Low
P105_Exp5,28,M,2,12,45,6,2,10,1,1040.03483293309,0,0,1020,0,0,553,3,2,1,312,792,0,0,0,0,16,Low
P105_Exp5,28,M,2,12,46,7,3,11,1,513.760587159595,223,0,267,0,0,553,3,3,1,154,795,0,167,0,163,16,Low
P105_Exp5,28,M,2,12,47,8,4,12,1,1722.27263980585,173,0,653,446,0,220,457,6,3,516,793,0,5,0,0,16,Low
P105_Exp5,28,M,2,12,48,5,1,9,1,321.413165773265,0,349,93,0,0,0,NA,2,5,97,788,0,58,0,58,16,Low
P105_Exp5,28,M,3,13,49,12,4,16,1,4822.9728397846,2254,0,1649,273,0,553,4,14,2,1447,792,159,0,154,0,16,Low
P105_Exp5,28,M,3,13,50,11,3,15,1,936.101365370632,263,NA,624,NA,0,NA,NA,3,NA,281,793,0,13,0,0,16,Low
P105_Exp5,28,M,3,13,51,9,1,13,1,1431.85626167178,257,0,947,0,0,0,NA,5,1,429,794,3,2,0,0,16,Low
P105_Exp5,28,M,3,13,52,10,2,14,1,906.51257232457294,184,0,661,0,0,790,4,4,1,272,792,0,0,0,0,16,Low
P105_Exp5,28,M,3,14,53,9,1,13,1,1617.06984378543,324,380,1230,0,0,456,4,6,3,485,793,0,61,0,53,16,Low
P105_Exp5,28,M,3,14,54,10,2,14,1,1204.39644178441,392,NA,769,NA,0,NA,NA,5,NA,362,792,0,88,0,80,16,Low
P105_Exp5,28,M,3,14,55,11,3,15,1,776.427098519889,173,NA,569,NA,0,NA,NA,3,NA,233,790,0,0,0,0,16,Low
P105_Exp5,28,M,3,14,56,12,4,16,1,1006.8718669454,300,0,656,123,0,590,147,5,3,302,792,0,1,0,0,16,Low
P105_Exp5,28,M,3,15,57,9,1,13,1,1917.78250238167,244,177,1531,441,0,270,213,11,9,575,794,2,176,0,172,16,Low
P105_Exp5,28,M,3,15,58,10,2,14,1,1292.05775849823,220,0,721,0,0,124,616,5,2,388,791,77,78,77,71,16,Low
P105_Exp5,28,M,3,15,59,12,4,16,1,980.750153918962,243,0,689,0,0,480,3,3,2,294,795,0,110,0,108,16,Low
P105_Exp5,28,M,3,15,60,11,3,15,1,520.469468064221,0,0,510,200,0,777,3,2,2,156,793,0,2,0,0,16,Low
P105_Exp5,28,M,3,16,61,9,1,13,1,1276.44309845891,407,0,778,70,0,310,60,9,11,383,790,0,9,0,0,16,Low
P105_Exp5,28,M,3,16,62,12,4,16,1,1390.78548604994,187,0,534,387,0,353,97,8,14,418,791,1,6,0,0,16,Low
P105_Exp5,28,M,3,16,63,11,3,15,1,809.500464852135,0,77,133,277,44,20,100,10,12,243,790,76,78,0,71,16,Low
P105_Exp5,28,M,3,16,64,10,2,14,1,534.588240514495,270,0,193,67,0,643,73,3,2,161,793,1,10,0,0,16,Low
P105_Exp5,28,M,3,17,65,11,3,15,1,3607.90934562829,1560,0,1443,386,0,490,163,12,3,1082,792,116,51,115,46,16,Low
P105_Exp5,28,M,3,17,66,9,1,13,1,1089.57874935095,137,0,617,733,0,0,NA,12,18,327,792,4,52,0,0,16,Low
P105_Exp5,28,M,3,17,67,10,2,14,1,1186.29688461988,276,233,696,144,0,214,266,10,10,356,793,5,273,0,216,16,Low
P105_Exp5,28,M,3,17,68,12,4,16,1,879.012731257717,110,0,512,420,0,317,243,10,6,264,795,2,1,0,0,16,Low
P105_Exp5,28,M,3,18,69,10,2,14,1,1294.95140071958,590,0,590,400,0,293,150,8,11,388,796,2,9,0,0,16,Low
P105_Exp5,28,M,3,18,70,9,1,13,1,910.992981786876,234,167,546,117,0,437,126,8,8,274,795,1,0,0,0,16,Low
P105_Exp5,28,M,3,18,71,11,3,15,1,693.404483993618,235,0,413,807,0,0,NA,7,15,208,790,2,8,0,0,16,Low
P105_Exp5,28,M,3,18,72,12,4,16,1,847.136586995475,0,0,169,170,0,0,NA,10,10,254,795,0,123,0,111,16,Low
P116_Exp5,23,M,1,1,1,3,3,7,4,7218.95466666683,329,204,5914,217,0,240,273,20,3,2166,793,89,40,82,34,23,High
P116_Exp5,23,M,1,1,2,4,4,8,3,7434.90261333318,787,0,4743,247,273,537,290,23,3,2231,798,133,0,128,0,23,High
P116_Exp5,23,M,1,1,3,2,2,6,1,6122.43712000009,694,0,3648,303,0,377,250,18,5,1837,792,30,53,30,46,23,High
P116_Exp5,23,M,1,1,4,1,1,5,1,1777.00437333328,0,0,1640,396,0,301,239,5,4,533,791,0,36,0,33,23,High
P116_Exp5,23,M,1,2,5,3,3,7,1,1543.8485333334,126,163,940,270,0,0,NA,5,3,463,785,45,72,45,70,23,High
P116_Exp5,23,M,1,2,6,2,2,6,3,4750.34410666672,113,80,3799,200,0,137,243,15,3,1426,788,49,74,46,47,23,High
P116_Exp5,23,M,1,2,7,4,4,8,1,1756.4782933332,100,0,1442,453,0,0,NA,7,7,527,787,0,98,0,96,23,High
P116_Exp5,23,M,1,2,8,1,1,5,2,2090.14400000001,0,0,1674,559,0,204,273,8,4,627,786,0,41,0,41,23,High
P116_Exp5,23,M,1,3,9,3,3,7,1,1529.40160000003,301,76,952,237,0,97,286,7,3,459,790,31,46,0,44,23,High
P116_Exp5,23,M,1,3,10,4,4,8,1,1190.73578666666,63,0,729,846,0,0,NA,4,3,357,786,0,76,0,69,23,High
P116_Exp5,23,M,1,3,11,1,1,5,1,1124.06954666676,203,341,542,460,0,0,NA,6,5,338,791,0,133,0,129,23,High
P116_Exp5,23,M,1,3,12,2,2,6,1,644.482560000142,0,90,606,237,0,197,283,2,3,193,795,0,92,0,87,23,High
P116_Exp5,23,M,1,4,13,1,1,5,1,4046.0334933332,899,0,2195,536,0,93,270,15,4,1214,795,42,166,36,164,23,High
P116_Exp5,23,M,1,4,14,2,2,6,1,2037.98442666653,116,97,1453,383,0,0,NA,9,3,612,787,0,149,0,131,23,High
P116_Exp5,23,M,1,4,15,4,4,8,1,930.216533333351,206,130,573,200,0,200,310,3,4,279,789,0,62,0,59,23,High
P116_Exp5,23,M,1,4,16,3,3,7,1,2568.69888000006,0,0,1421,640,0,146,720,2,3,771,793,303,416,303,399,23,High
P116_Exp5,23,M,1,5,17,1,1,5,1,7371.52042666662,1767,0,3448,450,0,106,277,22,3,2212,787,330,170,326,170,23,High
P116_Exp5,23,M,1,5,18,3,3,7,1,1847.88309333317,640,0,906,316,0,184,360,7,2,555,789,0,0,0,0,23,High
P116_Exp5,23,M,1,5,19,4,4,8,1,1873.53258666667,0,0,1667,406,0,334,226,7,5,562,786,0,0,0,0,23,High
P116_Exp5,23,M,1,5,20,2,2,6,1,2354.48490666658,0,0,2033,630,0,117,753,4,3,707,787,0,99,0,99,23,High
P116_Exp5,23,M,1,6,21,4,4,8,1,2850.50325333327,0,0,2553,807,0,0,NA,8,1,855,789,6,0,0,0,23,High
P116_Exp5,23,M,1,6,22,1,1,5,1,1868.01408000019,0,0,1837,800,0,0,NA,2,1,560,793,0,0,0,0,23,High
P116_Exp5,23,M,1,6,23,2,2,6,1,1101.27018666662,227,0,758,818,0,0,NA,5,3,331,788,0,0,0,0,23,High
P116_Exp5,23,M,1,6,24,3,3,7,1,565.994666666711,0,466,534,187,0,170,817,2,4,169,795,0,172,0,124,23,High
P116_Exp5,23,M,2,7,25,7,3,11,3,3478.74133333312,0,0,2733,217,0,436,267,8,4,1043,790,42,97,42,95,23,High
P116_Exp5,23,M,2,7,26,6,2,10,2,2679.13642666667,0,0,2257,233,0,580,280,8,3,804,790,0,59,0,56,23,High
P116_Exp5,23,M,2,7,27,5,1,9,1,3192.36522666665,100,344,2304,150,493,297,427,8,4,958,786,0,36,0,36,23,High
P116_Exp5,23,M,2,7,28,8,4,12,2,2005.44639999998,0,84,1565,236,0,510,296,6,3,601,792,68,298,68,278,23,High
P116_Exp5,23,M,2,8,29,7,3,11,3,3410.8100266667,0,0,2925,213,0,353,266,8,4,1024,790,62,508,62,506,23,High
P116_Exp5,23,M,2,8,30,5,1,9,3,4813.62730666683,130,0,4031,543,0,0,NA,15,2,1444,795,0,264,0,236,23,High
P116_Exp5,23,M,2,8,31,8,4,12,2,3183.83317333337,0,0,2967,216,0,243,350,6,4,955,789,0,372,0,357,23,High
P116_Exp5,23,M,2,8,32,6,2,10,1,2604.98986666653,247,0,1538,424,0,0,NA,8,4,782,792,85,541,85,521,23,High
P116_Exp5,23,M,2,9,33,8,4,12,3,4710.41877333346,0,0,3801,234,0,230,280,18,2,1414,790,0,491,0,465,23,High
P116_Exp5,23,M,2,9,34,5,1,9,2,3222.29333333325,0,160,1556,216,0,162,304,5,5,967,792,329,517,317,480,23,High
P116_Exp5,23,M,2,9,35,6,2,10,1,1807.33525333335,249,0,734,444,154,0,NA,7,2,542,786,110,557,104,557,23,High
P116_Exp5,23,M,2,9,36,7,3,11,1,1123.96416000001,0,0,717,178,0,93,247,3,4,337,792,86,391,86,391,23,High
P116_Exp5,23,M,2,10,37,8,4,12,2,3202.00576000002,0,0,2936,293,0,227,353,8,3,961,788,0,339,0,339,23,High
P116_Exp5,23,M,2,10,38,5,1,9,1,2181.47498666667,0,0,403,0,153,293,104,4,2,655,794,388,470,388,438,23,High
P116_Exp5,23,M,2,10,39,7,3,11,1,2034.04032000003,126,0,1610,394,0,173,323,7,4,610,794,0,171,0,169,23,High
P116_Exp5,23,M,2,10,40,6,2,10,1,1077.5931733333,0,0,997,424,0,213,484,4,2,323,790,0,309,0,309,23,High
P116_Exp5,23,M,2,11,41,5,1,9,1,1821.87520000002,174,0,1347,507,0,0,NA,8,3,547,792,0,173,0,149,23,High
P116_Exp5,23,M,2,11,42,7,3,11,1,944.124586666703,176,0,656,757,0,0,NA,6,3,283,790,0,0,0,0,23,High
P116_Exp5,23,M,2,11,43,8,4,12,1,3303.97951999998,0,0,3014,690,0,77,270,9,5,991,793,54,0,49,0,23,High
P116_Exp5,23,M,2,11,44,6,2,10,1,2086.74645333326,0,0,2003,830,0,0,NA,4,3,626,792,0,101,0,101,23,High
P116_Exp5,23,M,2,12,45,5,1,9,1,1658.43669333344,0,0,1257,286,0,80,300,5,4,498,796,10,32,0,32,23,High
P116_Exp5,23,M,2,12,46,7,3,11,1,6026.92863999982,2226,0,1326,593,0,46,760,26,4,1808,791,222,22,126,0,23,High
P116_Exp5,23,M,2,12,47,6,2,10,2,3763.93045333316,483,0,2639,273,0,207,307,15,2,1129,795,0,89,0,88,23,High
P116_Exp5,23,M,2,12,48,8,4,12,1,960.863146666725,0,0,673,527,0,206,330,2,3,288,795,49,480,49,480,23,High
P116_Exp5,23,M,3,13,49,9,1,13,4,9538.81386666671,931,0,7373,143,0,141,384,27,7,2862,792,53,91,53,91,23,High
P116_Exp5,23,M,3,13,50,10,2,14,2,3303.51957333323,0,0,3088,613,0,257,314,7,4,991,793,0,0,0,0,23,High
P116_Exp5,23,M,3,13,51,11,3,15,1,1895.28319999999,190,0,1474,379,0,350,427,8,3,568,795,0,0,0,0,23,High
P116_Exp5,23,M,3,13,52,12,4,16,1,3797.32437333337,0,330,3231,307,0,0,NA,10,5,1140,794,47,0,46,0,23,High
P116_Exp5,23,M,3,14,53,10,2,14,1,4343.47349333325,137,0,3290,364,0,374,433,13,3,1303,791,40,20,40,0,23,High
P116_Exp5,23,M,3,14,54,9,1,13,1,1213.0094933334,230,0,758,517,0,126,257,6,4,364,795,0,54,0,51,23,High
P116_Exp5,23,M,3,14,55,12,4,16,1,1696.41386666672,263,0,1212,880,0,0,NA,6,3,509,795,0,72,0,66,23,High
P116_Exp5,23,M,3,14,56,11,3,15,1,856.345173333466,97,0,610,223,0,424,293,4,5,257,786,0,123,0,123,23,High
P116_Exp5,23,M,3,15,57,9,1,13,1,2085.01120000005,174,0,1543,661,0,0,NA,9,5,626,793,0,151,0,151,23,High
P116_Exp5,23,M,3,15,58,11,3,15,2,6939.84213333329,914,114,5120,473,0,0,NA,24,5,2082,787,0,0,0,0,23,High
P116_Exp5,23,M,3,15,59,10,2,14,1,1178.61205333338,110,0,720,549,0,117,349,5,4,354,790,13,0,0,0,23,High
P116_Exp5,23,M,3,15,60,12,4,16,1,1414.00661333341,180,0,1087,460,0,120,297,5,4,425,794,0,0,0,0,23,High
P116_Exp5,23,M,3,16,61,11,3,15,1,2049.81120000002,317,0,1473,729,0,0,NA,8,2,615,789,0,0,0,0,23,High
P116_Exp5,23,M,3,16,62,10,2,14,1,1013.39690666669,83,0,676,551,0,0,NA,4,2,304,794,0,297,0,297,23,High
P116_Exp5,23,M,3,16,63,12,4,16,1,1190.80234666671,0,0,767,383,0,293,327,3,4,357,792,83,249,83,249,23,High
P116_Exp5,23,M,3,16,64,9,1,13,1,1275.58485333338,83,0,790,596,0,170,253,6,4,382,791,0,43,0,43,23,High
P116_Exp5,23,M,3,17,65,10,2,14,1,3526.10474666653,1185,0,1686,562,0,180,320,12,5,1058,786,42,63,42,63,23,High
P116_Exp5,23,M,3,17,66,11,3,15,1,1612.80554666678,0,0,1358,487,0,0,NA,3,2,484,795,52,0,52,0,23,High
P116_Exp5,23,M,3,17,67,9,1,13,1,2217.15711999991,200,0,1376,497,0,140,280,8,4,666,793,44,0,44,0,23,High
P116_Exp5,23,M,3,17,68,12,4,16,1,1555.38432000003,246,0,883,631,0,0,NA,6,7,467,792,48,0,48,0,23,High
P116_Exp5,23,M,3,18,69,9,1,13,1,1779.87413333335,0,0,1490,809,173,0,NA,5,4,534,794,0,0,0,0,23,High
P116_Exp5,23,M,3,18,70,10,2,14,1,7303.74954666672,907,0,4213,514,0,0,NA,27,3,2192,787,179,118,170,113,23,High
P116_Exp5,23,M,3,18,71,11,3,15,1,2382.82794666679,94,63,1775,460,0,0,NA,8,4,715,794,44,70,44,69,23,High
P116_Exp5,23,M,3,18,72,12,4,16,1,963.342079999848,147,0,513,317,0,390,250,5,4,289,795,0,187,0,187,23,High
P117_Exp5,20,F,1,1,1,3,3,7,1,2524.18431999922,0,0,193,66,0,28,253,14,8,758,791,394,435,29,50,9,Low
P117_Exp5,20,F,1,1,2,4,4,8,1,2313.72928000019,43,0,44,0,20,0,NA,10,1,694,790,376,613,79,388,9,Low
P117_Exp5,20,F,1,1,3,1,1,5,2,4624.73984000007,24,0,473,34,57,30,204,40,8,1388,786,637,563,56,283,9,Low
P117_Exp5,20,F,1,1,4,2,2,6,1,763.1688533329,NA,NA,NA,NA,NA,NA,NA,NA,NA,229,790,229,790,229,790,9,Low
P117_Exp5,20,F,1,2,5,3,3,7,2,2427.30751999989,NA,NA,NA,NA,NA,NA,NA,NA,NA,728,786,728,786,728,786,9,Low
P117_Exp5,20,F,1,2,6,1,1,5,1,2390.55061333329,NA,NA,NA,NA,NA,NA,NA,NA,NA,717,787,717,787,717,787,9,Low
P117_Exp5,20,F,1,2,7,2,2,6,1,2226.75925333351,NA,NA,NA,NA,NA,NA,NA,NA,NA,668,790,668,790,668,790,9,Low
P117_Exp5,20,F,1,2,8,4,4,8,1,669.956266666304,NA,NA,NA,NA,NA,NA,NA,NA,NA,201,788,201,788,201,788,9,Low
P117_Exp5,20,F,1,3,9,2,2,6,1,1770.94741333349,NA,NA,NA,NA,NA,NA,NA,NA,NA,531,792,531,792,531,792,9,Low
P117_Exp5,20,F,1,3,10,3,3,7,1,2416.28629333263,NA,NA,NA,NA,NA,NA,NA,NA,NA,725,789,725,789,725,789,9,Low
P117_Exp5,20,F,1,3,11,4,4,8,1,1419.16032000063,NA,NA,NA,NA,NA,NA,NA,NA,NA,426,787,426,787,426,787,9,Low
P117_Exp5,20,F,1,3,12,1,1,5,1,1638.17344000017,NA,NA,NA,NA,NA,NA,NA,NA,NA,492,787,492,787,492,787,9,Low
P117_Exp5,20,F,1,4,13,2,2,6,1,2859.14709333338,NA,NA,NA,NA,NA,NA,NA,NA,NA,858,786,858,786,858,786,9,Low
P117_Exp5,20,F,1,4,14,4,4,8,1,1701.61493333308,NA,NA,NA,NA,NA,NA,NA,NA,NA,510,789,510,789,510,789,9,Low
P117_Exp5,20,F,1,4,15,1,1,5,1,1613.27488000006,NA,NA,NA,NA,NA,NA,NA,NA,NA,484,790,484,790,484,790,9,Low
P117_Exp5,20,F,1,4,16,3,3,7,1,2818.32917333304,NA,NA,NA,NA,NA,NA,NA,NA,NA,845,789,845,789,845,789,9,Low
P117_Exp5,20,F,1,5,17,1,1,5,1,1977.78986666708,NA,NA,NA,NA,NA,NA,NA,NA,NA,593,790,593,790,593,790,9,Low
P117_Exp5,20,F,1,5,18,2,2,6,2,4463.18719999999,NA,NA,NA,NA,NA,NA,NA,NA,NA,1339,790,1339,790,1339,790,9,Low
P117_Exp5,20,F,1,5,19,4,4,8,1,1248.67498666663,NA,NA,NA,NA,NA,NA,NA,NA,NA,375,789,375,789,375,789,9,Low
P117_Exp5,20,F,1,5,20,3,3,7,1,507.357013333603,NA,NA,NA,NA,NA,NA,NA,NA,NA,153,786,153,786,153,786,9,Low
P117_Exp5,20,F,1,6,21,2,2,6,1,3228.3281066666,NA,NA,NA,NA,NA,NA,NA,NA,NA,969,790,969,790,969,790,9,Low
P117_Exp5,20,F,1,6,22,4,4,8,1,1887.38901333363,NA,NA,NA,NA,NA,NA,NA,NA,NA,566,788,566,788,566,788,9,Low
P117_Exp5,20,F,1,6,23,3,3,7,1,2463.71839999938,NA,NA,NA,NA,NA,NA,NA,NA,NA,739,790,739,790,739,790,9,Low
P117_Exp5,20,F,1,6,24,1,1,5,1,1105.53685333343,NA,NA,NA,NA,NA,NA,NA,NA,NA,332,787,332,787,332,787,9,Low
P117_Exp5,20,F,2,7,25,8,4,12,1,2325.71221333365,NA,NA,NA,NA,NA,NA,NA,NA,NA,698,786,698,786,698,786,9,Low
P117_Exp5,20,F,2,7,26,5,1,9,1,3003.99061333337,NA,NA,NA,NA,NA,NA,NA,NA,NA,901,793,901,793,901,793,9,Low
P117_Exp5,20,F,2,7,27,6,2,10,1,1295.72181333333,NA,NA,NA,NA,NA,NA,NA,NA,NA,389,790,389,613,389,591,9,Low
P117_Exp5,20,F,2,7,28,7,3,11,1,1111.42784000003,0,0,0,0,0,60,186,1,5,333,796,329,570,310,167,9,Low
P117_Exp5,20,F,2,8,29,6,2,10,1,1572.00426666623,0,0,10,0,0,27,410,3,2,471,786,260,491,0,27,9,Low
P117_Exp5,20,F,2,8,30,8,4,12,1,3370.10005333377,0,NA,53,NA,10,NA,NA,16,NA,1011,788,775,703,233,528,9,Low
P117_Exp5,20,F,2,8,31,7,3,11,1,4127.89632000022,0,0,10,0,0,0,NA,7,1,1239,794,1096,671,849,494,9,Low
P117_Exp5,20,F,2,8,32,5,1,9,1,1341.11274666702,40,0,0,30,20,73,494,6,9,402,786,335,499,203,33,9,Low
P117_Exp5,20,F,2,9,33,7,3,11,2,7085.78261333332,10,NA,0,NA,146,NA,NA,7,NA,2126,789,1912,512,1611,253,9,Low
P117_Exp5,20,F,2,9,34,8,4,12,1,1116.54442666622,0,0,10,182,0,10,34,2,16,335,789,199,443,111,330,9,Low
P117_Exp5,20,F,2,9,35,5,1,9,3,9108.92330666684,NA,NA,NA,NA,NA,NA,NA,NA,NA,2733,786,2718,785,2698,785,9,Low
P117_Exp5,20,F,2,9,36,6,2,10,1,1802.68373333274,NA,NA,NA,NA,NA,NA,NA,NA,NA,541,792,541,792,541,792,9,Low
P117_Exp5,20,F,2,10,37,8,4,12,1,2280.0930133335,NA,NA,NA,NA,NA,NA,NA,NA,NA,684,795,684,795,684,795,9,Low
P117_Exp5,20,F,2,10,38,6,2,10,1,1526.68159999939,NA,NA,NA,NA,NA,NA,NA,NA,NA,458,786,458,786,458,786,9,Low
P117_Exp5,20,F,2,10,39,5,1,9,1,1647.78282666612,NA,NA,NA,NA,NA,NA,NA,NA,NA,494,794,494,794,494,794,9,Low
P117_Exp5,20,F,2,10,40,7,3,11,1,1137.6746666665,NA,NA,NA,NA,NA,NA,NA,NA,NA,342,787,342,787,342,787,9,Low
P117_Exp5,20,F,2,11,41,6,2,10,1,2263.09888000014,NA,NA,NA,NA,NA,NA,NA,NA,NA,679,795,679,795,679,795,9,Low
P117_Exp5,20,F,2,11,42,5,1,9,1,3176.39765333388,NA,NA,NA,NA,NA,NA,NA,NA,NA,953,791,953,791,953,791,9,Low
P117_Exp5,20,F,2,11,43,8,4,12,1,1444.4778666666,10,0,361,143,0,0,NA,25,8,434,790,14,249,0,0,9,Low
P117_Exp5,20,F,2,11,44,7,3,11,1,3614.21440000049,50,NA,30,NA,0,NA,NA,8,NA,1084,795,859,795,759,795,9,Low
P117_Exp5,20,F,2,12,45,6,2,10,1,2340.35967999989,0,NA,0,NA,80,NA,NA,5,NA,702,785,640,739,398,631,9,Low
P117_Exp5,20,F,2,12,46,8,4,12,1,1203.55199999995,NA,NA,NA,NA,NA,NA,NA,NA,NA,361,793,361,695,361,512,9,Low
P117_Exp5,20,F,2,12,47,7,3,11,1,5887.75765333321,0,0,34,10,92,100,4,20,8,1766,793,1481,466,1085,53,9,Low
P117_Exp5,20,F,2,12,48,5,1,9,1,3415.80458666613,56,0,20,93,0,0,NA,11,8,1025,794,629,464,182,52,9,Low
P117_Exp5,20,F,3,13,49,9,1,13,3,7023.2669866673,374,0,648,40,0,55,326,80,8,2108,791,343,414,133,201,9,Low
P117_Exp5,20,F,3,13,50,10,2,14,2,5344.19669333329,0,0,1190,67,0,57,447,82,8,1604,785,167,327,0,113,9,Low
P117_Exp5,20,F,3,13,51,12,4,16,2,2502.9294933338,0,40,107,0,0,30,497,6,6,751,788,489,272,277,222,9,Low
P117_Exp5,20,F,3,13,52,11,3,15,1,1479.45088000051,0,0,240,159,0,100,257,16,10,444,789,118,517,65,310,9,Low
P117_Exp5,20,F,3,14,53,9,1,13,4,5874.91327999942,0,0,804,123,0,0,NA,61,8,1762,787,319,686,33,678,9,Low
P117_Exp5,20,F,3,14,54,11,3,15,1,1618.51221333291,0,0,94,20,0,50,193,8,5,486,793,247,503,0,114,9,Low
P117_Exp5,20,F,3,14,55,10,2,14,1,2493.89909333331,0,0,10,0,233,10,80,22,3,748,786,480,571,93,294,9,Low
P117_Exp5,20,F,3,14,56,12,4,16,1,846.977279999919,30,0,0,61,0,40,246,5,8,254,789,138,323,21,87,9,Low
P117_Exp5,20,F,3,15,57,11,3,15,1,1479.33952000039,0,0,20,20,0,10,300,2,3,444,794,227,459,37,89,9,Low
P117_Exp5,20,F,3,15,58,9,1,13,1,2841.07221333306,0,0,197,63,20,30,407,20,7,852,786,266,377,26,78,9,Low
P117_Exp5,20,F,3,15,59,10,2,14,1,2956.19072000045,0,NA,93,NA,10,NA,NA,14,NA,887,787,517,455,31,159,9,Low
P117_Exp5,20,F,3,15,60,12,4,16,1,1273.68746666616,0,0,217,84,0,0,NA,17,5,382,792,6,384,0,168,9,Low
P117_Exp5,20,F,3,16,61,11,3,15,1,5481.34656000002,87,0,449,20,0,26,447,67,3,1645,794,415,439,309,137,9,Low
P117_Exp5,20,F,3,16,62,10,2,14,1,3264.7722666661102,36,0,30,40,0,0,NA,13,3,980,794,508,530,14,100,9,Low
P117_Exp5,20,F,3,16,63,9,1,13,1,1913.82741333291,0,0,153,27,10,0,NA,19,4,574,790,240,724,44,665,9,Low
P117_Exp5,20,F,3,16,64,12,4,16,1,849.757013333146,32,0,0,0,10,30,287,4,3,255,793,144,338,0,218,9,Low
P117_Exp5,20,F,3,17,65,10,2,14,1,1668.25045333371,26,0,0,0,83,10,493,12,1,501,786,312,428,85,193,9,Low
P117_Exp5,20,F,3,17,66,11,3,15,1,1119.26698666684,10,0,20,53,0,0,NA,7,5,336,792,129,253,0,196,9,Low
P117_Exp5,20,F,3,17,67,12,4,16,1,1182.6427733331,0,0,275,227,0,0,NA,14,15,355,789,5,94,0,0,9,Low
P117_Exp5,20,F,3,17,68,9,1,13,1,1970.05994666597,10,0,113,26,0,27,430,9,5,591,792,271,244,51,179,9,Low
P117_Exp5,20,F,3,18,69,11,3,15,1,1082.03391999996,14,0,83,87,0,0,NA,7,8,325,794,182,162,36,85,9,Low
P117_Exp5,20,F,3,18,70,12,4,16,1,2313.8103466672,90,0,129,67,0,0,NA,22,5,694,794,278,504,0,370,9,Low
P117_Exp5,20,F,3,18,71,9,1,13,1,1528.03455999947,20,0,40,70,0,0,NA,6,6,459,790,311,367,85,89,9,Low
P117_Exp5,20,F,3,18,72,10,2,14,1,1384.37546666682,0,0,221,57,0,0,NA,12,3,415,792,249,377,57,115,9,Low
P118_Exp5,19,F,1,1,1,4,4,8,3,9070.18581333432,1468,0,3144,0,57,295,213,65,13,2721,795,1688,250,832,160,22,High
P118_Exp5,19,F,1,1,2,2,2,6,1,5215.34208000048,881,0,2926,137,114,227,266,41,8,1565,789,261,207,69,106,22,High
P118_Exp5,19,F,1,1,3,3,3,7,1,1314.11157333241,NA,0,NA,0,NA,200,440,NA,2,394,789,391,330,391,268,22,High
P118_Exp5,19,F,1,1,4,1,1,5,4,7418.39061333303,328,0,4221,64,6,525,234,116,8,2226,789,418,149,31,83,22,High
P118_Exp5,19,F,1,2,5,4,4,8,4,8258.20714666588,853,0,3653,16,140,133,593,93,3,2478,786,845,694,272,646,22,High
P118_Exp5,19,F,1,2,6,2,2,6,1,4619.21493333466,0,0,3298,335,0,303,243,40,17,1386,792,297,428,114,256,22,High
P118_Exp5,19,F,1,2,7,1,1,5,2,2101.05813333394,140,0,806,409,0,120,257,30,6,630,787,237,195,44,36,22,High
P118_Exp5,19,F,1,2,8,3,3,7,1,588.591359999555,0,0,95,0,0,589,267,6,8,177,787,97,241,52,129,22,High
P118_Exp5,19,F,1,3,9,4,4,8,1,1063.69066666593,247,0,663,511,0,190,233,5,12,319,789,34,368,1,207,22,High
P118_Exp5,19,F,1,3,10,3,3,7,1,1434.78997333477,0,10,1047,144,0,0,NA,6,10,431,793,103,424,92,163,22,High
P118_Exp5,19,F,1,3,11,2,2,6,1,883.459413335004,0,0,432,540,0,154,276,6,9,265,793,132,84,78,0,22,High
P118_Exp5,19,F,1,3,12,1,1,5,1,189.135360000364,0,17,147,174,0,200,343,2,19,57,787,0,475,0,357,22,High
P118_Exp5,19,F,1,4,13,3,3,7,1,6117.55733333302,339,0,1999,32,103,0,NA,32,4,1836,792,1149,766,739,728,22,High
P118_Exp5,19,F,1,4,14,4,4,8,1,2339.49226666664,133,16,621,26,233,146,43,33,9,702,786,367,633,129,348,22,High
P118_Exp5,19,F,1,4,15,1,1,5,1,6657.97759999987,576,0,1766,0,210,204,370,42,5,1997,789,1146,674,897,485,22,High
P118_Exp5,19,F,1,4,16,2,2,6,1,939.366399999926,0,0,157,6,0,0,NA,4,1,281,787,230,727,160,574,22,High
P118_Exp5,19,F,1,5,17,1,1,5,1,2054.35349333311,120,0,302,163,0,0,NA,24,4,617,787,356,679,44,527,22,High
P118_Exp5,19,F,1,5,18,3,3,7,1,1735.96159999943,81,0,352,337,163,0,NA,25,19,521,787,117,247,0,0,22,High
P118_Exp5,19,F,1,5,19,2,2,6,1,1519.25845333244,0,NA,14,NA,0,NA,NA,4,NA,455,792,397,595,295,362,22,High
P118_Exp5,19,F,1,5,20,4,4,8,1,1717.61877333483,0,0,51,0,0,324,347,8,5,516,793,460,567,345,357,22,High
P118_Exp5,19,F,1,6,21,3,3,7,1,2176.88746666681,109,NA,180,NA,57,NA,NA,19,NA,653,784,547,758,286,722,22,High
P118_Exp5,19,F,1,6,22,2,2,6,1,2574.84287999978,0,0,54,14,7,0,NA,8,1,772,786,721,724,625,675,22,High
P118_Exp5,19,F,1,6,23,1,1,5,1,733.646933333148,NA,NA,NA,NA,NA,NA,NA,NA,NA,220,792,220,527,220,478,22,High
P118_Exp5,19,F,1,6,24,4,4,8,1,650.421333331906,0,0,0,0,0,37,234,1,4,195,793,170,406,163,172,22,High
P118_Exp5,19,F,2,7,25,8,4,12,1,4950.1252266673,761,0,1143,0,167,187,323,62,10,1485,793,939,473,357,80,22,High
P118_Exp5,19,F,2,7,26,5,1,9,1,3203.9641600004,849,0,1372,54,0,189,280,39,11,961,796,405,197,78,0,22,High
P118_Exp5,19,F,2,7,27,6,2,10,1,4534.14911999971,243,0,654,134,29,223,214,27,4,1361,788,1218,251,905,129,22,High
P118_Exp5,19,F,2,7,28,7,3,11,1,555.934719999641,0,0,302,106,20,64,270,10,13,167,786,106,377,0,119,22,High
P118_Exp5,19,F,2,8,29,8,4,12,1,2168.34559999916,273,0,529,30,0,186,250,32,7,650,793,405,354,28,156,22,High
P118_Exp5,19,F,2,8,30,5,1,9,1,1116.56106666669,267,0,608,219,0,370,260,11,3,335,794,79,327,0,176,22,High
P118_Exp5,19,F,2,8,31,6,2,10,1,2148.00469333386,166,7,688,56,17,182,356,34,13,644,790,190,563,37,380,22,High
P118_Exp5,19,F,2,8,32,7,3,11,1,1539.58698666611,117,0,315,0,0,46,477,24,3,462,787,272,644,71,391,22,High
P118_Exp5,19,F,2,9,33,8,4,12,1,1200.64768000157,0,0,661,7,196,37,180,10,8,360,788,82,396,0,28,22,High
P118_Exp5,19,F,2,9,34,7,3,11,1,1373.39605333364,0,0,435,56,10,258,337,18,15,412,791,161,406,1,148,22,High
P118_Exp5,19,F,2,9,35,6,2,10,1,1938.78015999871,7,NA,223,NA,196,NA,NA,27,NA,582,786,275,613,214,550,22,High
P118_Exp5,19,F,2,9,36,5,1,9,1,498.087680000026,NA,0,NA,70,NA,17,820,NA,4,149,789,145,438,145,327,22,High
P118_Exp5,19,F,2,10,37,6,2,10,3,17756.3225600006,377,0,1445,0,315,27,433,110,9,5328,787,4125,425,2329,225,22,High
P118_Exp5,19,F,2,10,38,5,1,9,1,1694.61077333472,118,0,652,67,223,160,273,25,19,509,794,68,332,0,69,22,High
P118_Exp5,19,F,2,10,39,7,3,11,1,1110.55146666695,0,0,104,20,13,264,204,13,12,333,785,201,570,40,150,22,High
P118_Exp5,19,F,2,10,40,8,4,12,1,1279.3753599999,27,0,7,13,0,271,273,6,18,384,790,331,299,219,122,22,High
P118_Exp5,19,F,2,11,41,7,3,11,1,1474.16277333286,30,0,406,244,39,207,440,11,8,442,791,283,552,192,445,22,High
P118_Exp5,19,F,2,11,42,5,1,9,1,948.500906666595,0,0,296,86,7,6,284,7,8,285,788,221,680,114,475,22,High
P118_Exp5,19,F,2,11,43,8,4,12,1,1346.27114666728,0,0,280,63,0,223,410,7,9,404,789,345,241,262,91,22,High
P118_Exp5,19,F,2,11,44,6,2,10,1,383.944533332397,0,0,27,242,0,389,264,1,14,116,786,100,489,99,357,22,High
P118_Exp5,19,F,2,12,45,5,1,9,1,1754.1870933328,0,0,938,53,0,20,144,18,4,526,792,166,11,151,0,22,High
P118_Exp5,19,F,2,12,46,7,3,11,1,1886.235306667,486,20,533,55,0,437,207,23,10,566,793,105,178,38,31,22,High
P118_Exp5,19,F,2,12,47,6,2,10,1,1846.86976000012,445,0,814,0,0,477,177,20,2,554,789,83,58,0,52,22,High
P118_Exp5,19,F,2,12,48,8,4,12,1,698.457600001348,0,0,349,58,0,544,253,12,24,210,794,40,389,0,222,22,High
P118_Exp5,19,F,3,13,49,9,1,13,1,2619.01653333189,603,0,1276,157,0,396,280,17,5,786,792,302,484,59,142,22,High
P118_Exp5,19,F,3,13,50,11,3,15,1,3396.58367999982,357,0,1695,0,0,141,309,35,6,1019,789,229,521,131,425,22,High
P118_Exp5,19,F,3,13,51,10,2,14,1,1176.93354666699,87,0,523,134,0,611,173,19,15,353,790,48,244,0,217,22,High
P118_Exp5,19,F,3,13,52,12,4,16,1,766.299733333653,0,NA,97,NA,0,NA,NA,4,NA,230,794,203,463,117,408,22,High
P118_Exp5,19,F,3,14,53,11,3,15,1,1947.22303999879,312,0,557,191,0,570,237,33,5,584,794,326,193,45,71,22,High
P118_Exp5,19,F,3,14,54,9,1,13,1,1816.11690666796,221,0,1368,139,0,10,236,15,7,544,789,6,128,0,83,22,High
P118_Exp5,19,F,3,14,55,10,2,14,1,2019.16629333391,0,0,1584,275,200,494,183,11,10,606,792,0,9,0,0,22,High
P118_Exp5,19,F,3,14,56,12,4,16,1,1334.40938666536,111,0,845,30,0,512,77,17,17,400,788,30,376,0,265,22,High
P118_Exp5,19,F,3,15,57,9,1,13,1,1652.22016000007,420,0,941,40,0,279,114,8,5,496,793,10,19,0,0,22,High
P118_Exp5,19,F,3,15,58,10,2,14,1,1333.18741333278,147,0,855,67,0,400,117,13,4,400,787,18,93,0,91,22,High
P118_Exp5,19,F,3,15,59,12,4,16,1,1684.58794666549,93,0,496,306,0,0,NA,19,7,506,793,348,595,203,155,22,High
P118_Exp5,19,F,3,15,60,11,3,15,1,662.199893333309,0,0,27,97,20,606,6,8,10,199,794,129,359,46,168,22,High
P118_Exp5,19,F,3,16,61,9,1,13,1,1063.09845333271,223,0,727,727,0,0,NA,4,15,319,790,11,262,0,196,22,High
P118_Exp5,19,F,3,16,62,12,4,16,1,2033.20277333296,0,0,1118,83,6,0,NA,17,2,610,789,221,676,116,502,22,High
P118_Exp5,19,F,3,16,63,11,3,15,1,2332.50517333363,61,0,91,214,101,88,87,30,17,700,789,340,491,177,361,22,High
P118_Exp5,19,F,3,16,64,10,2,14,1,314.666666667108,0,0,286,94,0,53,317,2,9,94,793,7,480,0,305,22,High
P118_Exp5,19,F,3,17,65,9,1,13,1,756.72874666634,37,0,441,189,0,0,NA,10,15,228,785,34,530,0,368,22,High
P118_Exp5,19,F,3,17,66,11,3,15,1,890.43285333355,0,NA,7,NA,0,NA,NA,1,NA,267,791,265,485,251,434,22,High
P118_Exp5,19,F,3,17,67,12,4,16,1,1140.27818666546,0,0,0,28,14,0,NA,2,4,342,787,297,605,196,404,22,High
P118_Exp5,19,F,3,17,68,10,2,14,1,266.637653332509,NA,0,NA,0,NA,26,500,NA,3,80,793,65,296,31,264,22,High
P118_Exp5,19,F,3,18,69,12,4,16,1,1313.56970666639,0,0,303,378,0,0,NA,15,9,394,790,260,343,108,179,22,High
P118_Exp5,19,F,3,18,70,9,1,13,1,962.610773332926,0,0,295,0,0,237,400,17,2,289,794,95,612,83,541,22,High
P118_Exp5,19,F,3,18,71,11,3,15,1,782.02837333447,0,0,95,6,14,0,NA,8,1,235,788,106,587,36,371,22,High
P118_Exp5,19,F,3,18,72,10,2,14,1,556.433493333316,90,0,287,39,0,0,NA,6,5,167,786,35,453,0,205,22,High
P119_Exp5,20,F,1,1,1,4,4,8,2,4879.07191070644,57,NA,33,NA,0,NA,NA,8,NA,1464,804,1282,795,1184,782,9,Low
P119_Exp5,20,F,1,1,2,2,2,6,3,5306.00919897279,NA,NA,NA,NA,NA,NA,NA,NA,NA,1592,786,1571,555,1547,499,9,Low
P119_Exp5,20,F,1,1,3,1,1,5,4,4201.13835152279,16,0,0,0,0,71,303,1,11,1260,788,1246,426,1220,371,9,Low
P119_Exp5,20,F,1,1,4,3,3,7,1,2116.39558995466,36,NA,10,NA,0,NA,NA,3,NA,635,789,551,563,440,544,9,Low
P119_Exp5,20,F,1,2,5,2,2,6,1,1872.75167040752,14,0,0,0,0,27,564,1,2,562,786,556,718,549,589,9,Low
P119_Exp5,20,F,1,2,6,3,3,7,1,2968.78365347766,0,NA,109,NA,0,NA,NA,6,NA,891,787,781,638,658,509,9,Low
P119_Exp5,20,F,1,2,7,4,4,8,1,3222.61086980689,275,NA,432,NA,0,NA,NA,34,NA,967,787,513,720,180,611,9,Low
P119_Exp5,20,F,1,2,8,1,1,5,3,7282.59832575259,73,0,230,50,0,30,290,20,6,2185,789,1785,547,1623,509,9,Low
P119_Exp5,20,F,1,3,9,3,3,7,2,3883.65603693182,60,10,30,0,0,0,NA,7,1,1166,787,1008,724,826,573,9,Low
P119_Exp5,20,F,1,3,10,2,2,6,1,3780.04428818895,477,37,471,0,0,34,403,58,5,1134,795,208,587,137,227,9,Low
P119_Exp5,20,F,1,3,11,4,4,8,1,2728.37260105644,126,NA,186,NA,0,NA,NA,22,NA,819,790,475,625,351,575,9,Low
P119_Exp5,20,F,1,3,12,1,1,5,1,1974.54069137439,63,30,151,0,0,0,NA,15,3,592,791,398,588,270,306,9,Low
P119_Exp5,20,F,1,4,13,3,3,7,2,3329.49217916666,179,NA,70,NA,0,NA,NA,14,NA,999,795,736,639,672,560,9,Low
P119_Exp5,20,F,1,4,14,1,1,5,1,1614.18160717494,34,30,110,0,0,10,267,15,7,484,789,349,444,183,315,9,Low
P119_Exp5,20,F,1,4,15,2,2,6,2,2730.24055569294,57,NA,0,NA,0,NA,NA,4,NA,819,789,775,492,660,482,9,Low
P119_Exp5,20,F,1,4,16,4,4,8,1,2489.42587488364,82,NA,150,NA,0,NA,NA,19,NA,747,787,291,594,109,528,9,Low
P119_Exp5,20,F,1,5,17,2,2,6,1,4915.45563927775,86,NA,170,NA,0,NA,NA,21,NA,1475,789,1136,786,877,785,9,Low
P119_Exp5,20,F,1,5,18,3,3,7,2,4139.3601679365,311,0,315,0,0,10,294,35,1,1242,787,671,531,435,487,9,Low
P119_Exp5,20,F,1,5,19,4,4,8,1,1408.23043511682,97,0,134,40,0,47,266,12,6,422,786,193,682,152,562,9,Low
P119_Exp5,20,F,1,5,20,1,1,5,1,1765.94844137981,173,0,171,10,0,14,299,17,2,530,787,194,755,53,686,9,Low
P119_Exp5,20,F,1,6,21,4,4,8,1,1435.29231058073,94,NA,0,NA,0,NA,NA,4,NA,431,786,363,746,312,683,9,Low
P119_Exp5,20,F,1,6,22,3,3,7,2,3270.73992849091,30,NA,57,NA,0,NA,NA,12,NA,981,787,742,523,711,493,9,Low
P119_Exp5,20,F,1,6,23,2,2,6,2,7904.73986022334,370,NA,381,NA,0,NA,NA,45,NA,2372,787,1419,537,1210,449,9,Low
P119_Exp5,20,F,1,6,24,1,1,5,1,1413.65083157689,41,NA,89,NA,0,NA,NA,8,NA,424,789,306,727,269,695,9,Low
P119_Exp5,20,F,2,7,25,7,3,11,3,5006.31085359328,73,23,134,40,0,0,NA,20,4,1503,785,1106,426,676,256,9,Low
P119_Exp5,20,F,2,7,26,5,1,9,3,6825.97344415353,177,0,381,0,0,23,413,37,2,2048,785,1518,712,1210,564,9,Low
P119_Exp5,20,F,2,7,27,6,2,10,3,3491.50076373644,86,NA,189,NA,0,NA,NA,26,NA,1048,785,670,552,537,477,9,Low
P119_Exp5,20,F,2,7,28,8,4,12,3,3428.43190797612,84,0,256,50,0,126,370,25,15,1029,790,691,365,551,137,9,Low
P119_Exp5,20,F,2,8,29,5,1,9,2,5475.19050747906,113,NA,63,NA,0,NA,NA,14,NA,1643,786,1341,600,1162,565,9,Low
P119_Exp5,20,F,2,8,30,8,4,12,1,6788.09424253541,0,0,33,0,0,0,NA,5,1,2036,793,1866,587,1628,420,9,Low
P119_Exp5,20,F,2,8,31,7,3,11,1,4398.32105950336,120,NA,501,NA,0,NA,NA,39,NA,1319,789,636,511,351,381,9,Low
P119_Exp5,20,F,2,8,32,6,2,10,2,3138.56869789288,80,0,109,0,37,13,850,13,1,941,787,627,451,512,404,9,Low
P119_Exp5,20,F,2,9,33,7,3,11,1,2930.75426455198,0,0,0,0,0,20,393,2,6,880,789,835,652,794,559,9,Low
P119_Exp5,20,F,2,9,34,6,2,10,1,5707.09379026721,210,10,293,10,0,0,NA,40,2,1712,792,922,651,561,437,9,Low
P119_Exp5,20,F,2,9,35,8,4,12,1,4224.46261104051,183,NA,107,NA,0,NA,NA,17,NA,1267,785,1012,758,802,683,9,Low
P119_Exp5,20,F,2,9,36,5,1,9,1,6268.22215774791,454,NA,276,NA,0,NA,NA,56,NA,1880,788,811,433,471,339,9,Low
P119_Exp5,20,F,2,10,37,8,4,12,1,1789.60379564251,20,NA,20,NA,0,NA,NA,4,NA,537,786,430,650,426,557,9,Low
P119_Exp5,20,F,2,10,38,5,1,9,1,2002.9277991589,46,NA,0,NA,0,NA,NA,4,NA,601,792,448,670,335,443,9,Low
P119_Exp5,20,F,2,10,39,7,3,11,1,2318.88264056579,138,23,0,0,0,47,217,7,9,696,793,581,354,381,267,9,Low
P119_Exp5,20,F,2,10,40,6,2,10,2,3301.17291167153,24,0,173,10,64,37,409,27,6,990,788,315,474,162,421,9,Low
P119_Exp5,20,F,2,11,41,5,1,9,2,2512.7407476939,89,0,146,0,0,10,400,17,1,753,789,438,725,227,548,9,Low
P119_Exp5,20,F,2,11,42,8,4,12,1,2271.61545222589,0,30,0,20,33,0,NA,9,3,682,792,541,673,399,547,9,Low
P119_Exp5,20,F,2,11,43,7,3,11,2,2768.8886139249,20,0,248,0,0,0,NA,37,1,830,787,122,717,77,667,9,Low
P119_Exp5,20,F,2,11,44,6,2,10,2,2662.74842772691,43,0,0,0,0,0,NA,5,1,799,789,707,708,619,602,9,Low
P119_Exp5,20,F,2,12,45,8,4,12,1,6118.32242484252,364,0,240,10,0,40,260,46,3,1836,788,1138,567,922,424,9,Low
P119_Exp5,20,F,2,12,46,5,1,9,2,2901.93280824678,NA,NA,NA,NA,NA,NA,NA,NA,NA,871,788,864,559,846,363,9,Low
P119_Exp5,20,F,2,12,47,7,3,11,1,2701.42720608965,129,0,247,63,0,43,423,28,8,810,788,278,538,121,455,9,Low
P119_Exp5,20,F,2,12,48,6,2,10,2,3437.99696212045,171,NA,213,NA,0,NA,NA,25,NA,1032,787,506,437,378,395,9,Low
P119_Exp5,20,F,3,13,49,12,4,16,2,6247.80351062782,119,NA,101,NA,0,NA,NA,14,NA,1875,788,1609,608,1379,501,9,Low
P119_Exp5,20,F,3,13,50,11,3,15,1,2488.04218898022,74,0,20,10,0,0,NA,9,1,746,792,613,590,510,430,9,Low
P119_Exp5,20,F,3,13,51,10,2,14,1,1296.53033186332,37,NA,10,NA,0,NA,NA,7,NA,389,788,253,788,0,788,9,Low
P119_Exp5,20,F,3,13,52,9,1,13,1,1409.25529282231,0,NA,20,NA,0,NA,NA,2,NA,423,790,322,661,319,553,9,Low
P119_Exp5,20,F,3,14,53,11,3,15,1,1251.34400573461,66,0,90,27,0,43,237,12,6,375,793,142,604,75,308,9,Low
P119_Exp5,20,F,3,14,54,9,1,13,2,3565.49019942486,23,0,184,0,0,34,260,11,3,1070,789,840,606,586,525,9,Low
P119_Exp5,20,F,3,14,55,12,4,16,1,2771.21182383689,103,NA,209,NA,0,NA,NA,21,NA,831,786,630,739,503,708,9,Low
P119_Exp5,20,F,3,14,56,10,2,14,1,1952.02752865043,50,NA,50,NA,0,NA,NA,8,NA,586,787,441,641,362,611,9,Low
P119_Exp5,20,F,3,15,57,12,4,16,2,2355.46306330889,170,NA,117,NA,0,NA,NA,19,NA,707,787,562,680,442,566,9,Low
P119_Exp5,20,F,3,15,58,10,2,14,1,1803.00587949205,10,26,368,0,0,20,464,24,3,541,787,236,271,68,145,9,Low
P119_Exp5,20,F,3,15,59,9,1,13,1,2181.93229624467,76,NA,174,NA,0,NA,NA,21,NA,655,793,386,793,334,793,9,Low
P119_Exp5,20,F,3,15,60,11,3,15,1,1530.56013038986,171,0,262,43,0,0,NA,22,2,459,789,112,449,36,386,9,Low
P119_Exp5,20,F,3,16,61,10,2,14,1,1899.64714516191,185,0,50,23,0,37,240,17,4,570,789,251,640,168,430,9,Low
P119_Exp5,20,F,3,16,62,11,3,15,1,891.263536058432,30,0,10,60,0,17,313,3,6,267,786,131,249,94,199,9,Low
P119_Exp5,20,F,3,16,63,12,4,16,1,1364.6859293267,40,0,23,70,0,20,213,6,6,410,793,251,723,236,665,9,Low
P119_Exp5,20,F,3,16,64,9,1,13,1,1577.07211550769,0,0,20,0,0,41,226,2,2,473,790,421,564,393,426,9,Low
P119_Exp5,20,F,3,17,65,11,3,15,1,1954.00641709421,146,NA,228,NA,0,NA,NA,25,NA,586,787,112,507,73,479,9,Low
P119_Exp5,20,F,3,17,66,12,4,16,1,1815.62033331375,89,NA,30,NA,0,NA,NA,8,NA,545,794,339,787,308,779,9,Low
P119_Exp5,20,F,3,17,67,9,1,13,1,5107.09123025663,246,23,258,0,0,0,NA,36,1,1532,787,957,392,573,322,9,Low
P119_Exp5,20,F,3,17,68,10,2,14,1,1386.14607422369,36,0,173,57,0,23,230,12,7,416,787,106,319,37,224,9,Low
P119_Exp5,20,F,3,18,69,12,4,16,1,842.90066304311,20,NA,0,NA,0,NA,NA,2,NA,253,791,243,770,209,767,9,Low
P119_Exp5,20,F,3,18,70,9,1,13,1,1004.66604657504,NA,NA,NA,NA,NA,NA,NA,NA,NA,301,787,301,672,301,576,9,Low
P119_Exp5,20,F,3,18,71,10,2,14,1,1553.41036121717,57,0,23,13,0,0,NA,7,1,466,793,377,647,241,498,9,Low
P119_Exp5,20,F,3,18,72,11,3,15,1,878.399907839594,17,0,0,0,0,0,NA,4,17,263,795,85,37,76,0,9,Low
P120_Exp5,20,F,1,1,1,1,1,5,1,3499.2503434687,882,0,2016,183,0,597,240,10,3,1050,794,68,47,63,47,22,High
P120_Exp5,20,F,1,1,2,2,2,6,3,4256.32493365356,293,150,3295,170,137,422,217,16,4,1277,792,0,158,0,151,22,High
P120_Exp5,20,F,1,1,3,3,3,7,1,4801.05216448919,767,190,2870,173,0,390,210,19,4,1441,798,106,0,99,0,22,High
P120_Exp5,20,F,1,1,4,4,4,8,1,1555.7775179841,320,177,894,177,0,217,223,6,4,467,792,0,0,0,0,22,High
P120_Exp5,20,F,1,2,5,2,2,6,1,2559.33465316048,410,0,1485,302,0,213,214,10,3,768,786,55,62,54,62,22,High
P120_Exp5,20,F,1,2,6,1,1,5,1,2276.976541767,508,0,1294,358,0,334,203,10,4,683,785,45,79,45,61,22,High
P120_Exp5,20,F,1,2,7,3,3,7,1,1582.82062003491,237,0,1076,537,0,0,NA,8,4,475,794,0,122,0,115,22,High
P120_Exp5,20,F,1,2,8,4,4,8,1,6003.74145596379,656,284,4214,194,0,160,240,22,4,1801,788,75,175,73,168,22,High
P120_Exp5,20,F,1,3,9,1,1,5,1,5022.39284220923,2032,0,1882,457,0,106,314,18,4,1507,792,146,51,138,48,22,High
P120_Exp5,20,F,1,3,10,3,3,7,1,1455.48397006496,352,0,930,597,0,0,NA,7,2,437,792,0,222,0,211,22,High
P120_Exp5,20,F,1,3,11,2,2,6,1,1609.50062720258,187,0,1197,420,0,0,NA,4,2,483,790,0,140,0,140,22,High
P120_Exp5,20,F,1,3,12,4,4,8,1,1949.52469130567,213,0,1547,403,0,0,NA,5,2,585,794,0,56,0,55,22,High
P120_Exp5,20,F,1,4,13,1,1,5,1,1353.54049510624,397,0,834,519,0,133,234,5,5,406,792,0,104,0,100,22,High
P120_Exp5,20,F,1,4,14,2,2,6,1,1575.57450911736,333,0,1079,620,0,0,NA,5,3,473,791,0,79,0,49,22,High
P120_Exp5,20,F,1,4,15,4,4,8,1,1012.89989503948,237,0,674,697,0,0,NA,3,3,304,789,0,66,0,65,22,High
P120_Exp5,20,F,1,4,16,3,3,7,1,639.948970449041,164,0,393,244,0,177,660,3,2,192,786,0,151,0,146,22,High
P120_Exp5,20,F,1,5,17,1,1,5,1,1342.13735311914,267,0,963,740,0,0,NA,4,2,402,786,0,30,0,30,22,High
P120_Exp5,20,F,1,5,18,2,2,6,1,1878.54412178876,296,0,1217,566,0,0,NA,7,2,564,790,30,132,30,129,22,High
P120_Exp5,20,F,1,5,19,4,4,8,1,1382.80952665446,273,0,947,609,0,0,NA,6,2,415,788,0,167,0,160,22,High
P120_Exp5,20,F,1,5,20,3,3,7,1,1892.17959330017,639,0,1060,450,0,0,NA,7,2,568,786,0,103,0,98,22,High
P120_Exp5,20,F,1,6,21,1,1,5,1,1388.1902429448,253,0,1016,591,0,0,NA,4,3,416,793,0,81,0,81,22,High
P120_Exp5,20,F,1,6,22,2,2,6,1,1024.8602660713,117,0,808,256,0,0,NA,4,1,308,791,0,71,0,64,22,High
P120_Exp5,20,F,1,6,23,3,3,7,1,925.283521210076,234,0,583,637,0,0,NA,4,2,277,791,0,105,0,99,22,High
P120_Exp5,20,F,1,6,24,4,4,8,1,962.709174225893,266,0,570,711,0,0,NA,4,3,289,795,0,64,0,44,22,High
P120_Exp5,20,F,2,7,25,5,1,9,4,7627.43009036876,543,230,6116,186,0,177,237,22,5,2288,791,26,51,0,51,22,High
P120_Exp5,20,F,2,7,26,6,2,10,1,1308.03843429749,310,143,713,144,40,117,253,6,3,392,791,22,186,0,168,22,High
P120_Exp5,20,F,2,7,27,7,3,11,1,1804.08620410071,483,164,1106,260,0,0,NA,7,5,541,793,0,112,0,112,22,High
P120_Exp5,20,F,2,7,28,8,4,12,1,2696.10067669601,1000,180,1195,184,0,146,247,10,4,809,789,0,61,0,60,22,High
P120_Exp5,20,F,2,8,29,5,1,9,1,1546.20649048047,356,0,1056,220,0,353,429,6,3,464,790,0,50,0,49,22,High
P120_Exp5,20,F,2,8,30,7,3,11,1,1279.86807410343,280,37,824,0,0,813,87,5,4,384,790,0,114,0,114,22,High
P120_Exp5,20,F,2,8,31,6,2,10,1,1681.26882674642,302,187,1079,130,0,424,166,6,4,505,789,0,0,0,0,22,High
P120_Exp5,20,F,2,8,32,8,4,12,1,3881.69720190763,866,0,1700,197,494,483,243,14,3,1165,789,101,0,101,0,22,High
P120_Exp5,20,F,2,9,33,6,2,10,1,6159.57486751904,1464,87,2907,296,397,196,214,16,6,1848,801,263,48,253,47,22,High
P120_Exp5,20,F,2,9,34,8,4,12,1,5635.98095351881,1573,0,2824,366,0,170,247,20,3,1691,788,148,49,147,49,22,High
P120_Exp5,20,F,2,9,35,5,1,9,1,1996.65363905569,927,103,604,447,273,117,280,6,4,599,794,0,38,0,33,22,High
P120_Exp5,20,F,2,9,36,7,3,11,1,1617.5621015982,330,0,970,416,0,297,336,5,3,486,788,59,49,59,49,22,High
P120_Exp5,20,F,2,10,37,5,1,9,2,4304.54359271971,957,0,2599,417,0,234,199,14,3,1291,793,77,72,72,46,22,High
P120_Exp5,20,F,2,10,38,7,3,11,1,2830.45900995876,833,357,1443,0,0,0,NA,11,4,849,789,50,58,50,58,22,High
P120_Exp5,20,F,2,10,39,6,2,10,1,1586.57786273307,323,0,1197,437,0,0,NA,3,2,476,788,0,214,0,214,22,High
P120_Exp5,20,F,2,10,40,8,4,12,1,654.829033937858,244,0,323,187,0,0,NA,3,1,196,792,0,210,0,210,22,High
P120_Exp5,20,F,2,11,41,6,2,10,1,1383.89070460016,307,0,853,293,0,0,NA,6,1,416,793,19,101,0,101,22,High
P120_Exp5,20,F,2,11,42,8,4,12,1,1084.55033408154,327,0,654,360,0,0,NA,4,2,325,793,0,114,0,92,22,High
P120_Exp5,20,F,2,11,43,7,3,11,1,974.296210330976,336,0,566,533,0,0,NA,3,3,293,791,0,144,0,142,22,High
P120_Exp5,20,F,2,11,44,5,1,9,1,1009.70756141851,210,0,719,621,0,0,NA,3,5,303,785,0,48,0,48,22,High
P120_Exp5,20,F,2,12,45,8,4,12,1,1166.26929608265,256,477,764,153,0,0,NA,3,4,350,794,0,104,0,94,22,High
P120_Exp5,20,F,2,12,46,5,1,9,1,1012.66992072487,304,0,596,440,0,0,NA,3,4,304,794,0,271,0,268,22,High
P120_Exp5,20,F,2,12,47,6,2,10,1,823.055031702097,283,0,437,608,0,0,NA,4,4,247,792,0,147,0,141,22,High
P120_Exp5,20,F,2,12,48,7,3,11,1,481.464240913738,117,186,260,300,0,0,NA,3,3,144,789,0,135,0,135,22,High
P120_Exp5,20,F,3,13,49,10,2,14,1,2095.93384931759,397,0,1361,480,0,339,593,7,5,629,790,32,50,29,50,22,High
P120_Exp5,20,F,3,13,50,12,4,16,1,1144.49426984174,280,0,527,180,0,640,236,5,4,343,795,0,79,0,76,22,High
P120_Exp5,20,F,3,13,51,11,3,15,1,1229.5356993518,246,0,847,191,0,504,193,4,3,369,790,0,53,0,53,22,High
P120_Exp5,20,F,3,13,52,9,1,13,1,1033.90478466008,323,0,610,124,0,720,160,3,3,310,793,0,37,0,37,22,High
P120_Exp5,20,F,3,14,53,10,2,14,1,1680.0899417176,247,0,1283,200,0,0,NA,6,1,504,794,0,35,0,35,22,High
P120_Exp5,20,F,3,14,54,9,1,13,1,2160.78063266377,277,0,1673,220,0,356,260,8,3,648,796,0,28,0,28,22,High
P120_Exp5,20,F,3,14,55,12,4,16,1,3406.11245274704,764,0,1690,238,0,517,173,10,3,1022,791,113,0,109,0,22,High
P120_Exp5,20,F,3,14,56,11,3,15,1,1344.75795096751,67,0,1069,393,0,413,214,4,3,404,795,0,46,0,46,22,High
P120_Exp5,20,F,3,15,57,10,2,14,1,2069.93395171867,496,0,1150,290,0,0,NA,8,1,621,788,46,207,46,207,22,High
P120_Exp5,20,F,3,15,58,11,3,15,1,2958.98350499556,395,0,2157,684,0,0,NA,8,3,888,786,64,85,64,85,22,High
P120_Exp5,20,F,3,15,59,12,4,16,1,1781.37421386327,504,0,993,593,0,0,NA,5,4,535,789,26,58,0,58,22,High
P120_Exp5,20,F,3,15,60,9,1,13,1,1338.7218718799,203,0,873,477,0,0,NA,5,3,401,792,0,61,0,61,22,High
P120_Exp5,20,F,3,16,61,11,3,15,1,1648.41449990217,379,0,954,219,0,0,NA,6,3,495,794,44,289,38,289,22,High
P120_Exp5,20,F,3,16,62,10,2,14,1,961.399301970232,300,0,557,160,0,0,NA,4,1,288,796,0,181,0,178,22,High
P120_Exp5,20,F,3,16,63,9,1,13,1,1661.82981047405,267,0,1163,847,0,0,NA,4,4,499,795,0,70,0,70,22,High
P120_Exp5,20,F,3,16,64,12,4,16,1,703.10870659705,204,177,350,296,0,0,NA,3,3,211,787,0,165,0,164,22,High
P120_Exp5,20,F,3,17,65,11,3,15,1,1166.33969638315,354,0,463,0,63,790,4,7,3,350,789,0,42,0,41,22,High
P120_Exp5,20,F,3,17,66,9,1,13,1,1147.39604222359,349,0,650,287,0,436,10,6,4,344,795,0,116,0,96,22,High
P120_Exp5,20,F,3,17,67,12,4,16,1,977.448863781319,330,0,394,50,0,413,4,3,3,294,795,0,39,0,37,22,High
P120_Exp5,20,F,3,17,68,10,2,14,1,823.187725600292,226,0,407,187,0,347,3,4,4,247,791,0,145,0,143,22,High
P120_Exp5,20,F,3,18,69,12,4,16,1,2990.20625154662,594,130,2063,190,0,0,NA,8,4,898,791,26,113,26,113,22,High
P120_Exp5,20,F,3,18,70,11,3,15,1,1106.61762823474,257,170,557,405,0,0,NA,3,5,332,787,0,68,0,66,22,High
P120_Exp5,20,F,3,18,71,9,1,13,1,1161.35108843082,292,0,724,340,0,0,NA,6,2,349,795,0,165,0,159,22,High
P120_Exp5,20,F,3,18,72,10,2,14,1,774.719892137909,280,0,426,231,0,587,163,2,5,232,792,0,98,0,98,22,High
P121_Exp5,23,F,1,1,1,1,1,5,3,4375.0518402212,207,0,3381,419,0,311,263,17,5,1313,791,2,2,0,0,24,High
P121_Exp5,23,F,1,1,2,2,2,6,1,2377.26838301205,243,93,1686,220,0,464,403,8,3,713,791,52,54,42,47,24,High
P121_Exp5,23,F,1,1,3,3,3,7,1,1741.46407024637,0,0,1162,207,0,567,240,9,2,522,791,42,0,42,0,24,High
P121_Exp5,23,F,1,1,4,4,4,8,1,1716.11526875859,224,412,1156,200,0,246,250,7,5,515,789,48,70,48,67,24,High
P121_Exp5,23,F,1,2,5,1,1,5,1,2142.38482084147,417,0,1554,177,0,220,223,7,4,643,791,0,62,0,62,24,High
P121_Exp5,23,F,1,2,6,4,4,8,1,1364.95558381102,60,0,859,654,0,131,767,8,5,410,789,44,66,34,66,24,High
P121_Exp5,23,F,1,2,7,2,2,6,1,1235.97796683862,143,0,971,267,0,307,470,7,3,371,788,0,49,0,44,24,High
P121_Exp5,23,F,1,2,8,3,3,7,1,709.288999632918,143,0,487,197,0,349,247,3,4,213,786,0,235,0,233,24,High
P121_Exp5,23,F,1,3,9,4,4,8,1,1300.8413902553,204,0,854,214,0,56,237,12,4,390,794,0,206,0,197,24,High
P121_Exp5,23,F,1,3,10,1,1,5,1,1316.06236186599,0,63,891,273,0,114,520,5,4,394,794,0,518,0,489,24,High
P121_Exp5,23,F,1,3,11,3,3,7,1,4491.40134998015,157,0,3064,220,0,483,480,18,2,1348,791,297,248,185,225,24,High
P121_Exp5,23,F,1,3,12,2,2,6,1,1066.54748393521,183,277,802,153,0,187,463,3,5,320,793,2,50,0,50,24,High
P121_Exp5,23,F,1,4,13,4,4,8,1,1081.70402860378,270,0,676,183,0,87,233,6,2,325,789,0,63,0,63,24,High
P121_Exp5,23,F,1,4,14,1,1,5,1,1931.14637289182,480,61,1303,280,0,0,NA,10,5,579,790,0,189,0,154,24,High
P121_Exp5,23,F,1,4,15,2,2,6,1,873.386979785209,112,0,633,177,0,0,NA,6,2,263,786,0,71,0,69,24,High
P121_Exp5,23,F,1,4,16,3,3,7,1,340.451159258009,0,0,40,187,0,577,230,5,3,102,786,0,135,0,130,24,High
P121_Exp5,23,F,1,5,17,2,2,6,1,991.520390487494,177,0,727,677,0,0,NA,4,2,298,786,0,108,0,96,24,High
P121_Exp5,23,F,1,5,18,3,3,7,1,756.94061628019,303,0,387,504,0,0,NA,5,3,227,786,0,117,0,109,24,High
P121_Exp5,23,F,1,5,19,1,1,5,1,922.710710232423,167,20,469,233,0,0,NA,4,2,277,792,0,266,0,241,24,High
P121_Exp5,23,F,1,5,20,4,4,8,1,490.111531142247,253,0,143,223,0,0,NA,3,2,147,786,0,162,0,142,24,High
P121_Exp5,23,F,1,6,21,1,1,5,1,1210.47983137942,247,203,799,127,0,0,NA,5,5,363,786,0,117,0,83,24,High
P121_Exp5,23,F,1,6,22,3,3,7,1,981.210799833207,295,0,433,313,0,0,NA,8,1,294,789,42,88,42,83,24,High
P121_Exp5,23,F,1,6,23,2,2,6,1,739.600808963587,0,NA,417,NA,0,NA,NA,2,NA,222,787,0,0,0,0,24,High
P121_Exp5,23,F,1,6,24,4,4,8,1,459.019771817111,0,230,433,120,0,0,NA,2,7,137,786,0,82,0,77,24,High
P121_Exp5,23,F,2,7,25,6,2,10,1,6453.70262913093,3653,0,1043,53,0,653,236,44,5,1937,792,343,117,319,115,24,High
P121_Exp5,23,F,2,7,26,7,3,11,1,910.173910075173,216,0,410,137,0,307,170,4,2,274,790,0,0,0,0,24,High
P121_Exp5,23,F,2,7,27,8,4,12,1,2701.33888571218,301,0,459,236,0,546,294,7,21,810,789,77,142,77,105,24,High
P121_Exp5,23,F,2,7,28,5,1,9,1,901.782620940139,210,0,433,153,0,147,203,7,2,270,788,39,55,39,52,24,High
P121_Exp5,23,F,2,8,29,7,3,11,1,2325.35392151112,582,0,1156,210,0,563,253,15,3,698,786,52,73,48,73,24,High
P121_Exp5,23,F,2,8,30,8,4,12,1,1525.2267743017,0,0,1169,290,0,150,603,3,4,457,786,0,285,0,246,24,High
P121_Exp5,23,F,2,8,31,6,2,10,1,1069.22482869231,246,0,687,257,0,203,543,9,3,321,793,0,65,0,65,24,High
P121_Exp5,23,F,2,8,32,5,1,9,1,429.591592925135,0,207,20,287,0,229,670,7,3,129,789,0,51,0,46,24,High
P121_Exp5,23,F,2,9,33,7,3,11,1,1327.43350371493,154,130,906,196,0,0,NA,7,5,398,796,55,206,51,158,24,High
P121_Exp5,23,F,2,9,34,8,4,12,1,1166.13020215482,0,0,743,193,0,398,494,10,7,349,789,0,206,0,189,24,High
P121_Exp5,23,F,2,9,35,6,2,10,1,1005.12983521912,170,0,700,127,0,320,150,5,2,302,792,0,0,0,0,24,High
P121_Exp5,23,F,2,9,36,5,1,9,1,1016.20870915758,97,0,510,197,0,667,240,10,3,304,794,0,3,0,0,24,High
P121_Exp5,23,F,2,10,37,8,4,12,1,2333.38638244823,438,0,1074,197,0,250,253,12,7,700,794,138,243,122,234,24,High
P121_Exp5,23,F,2,10,38,6,2,10,1,4507.07629685894,190,0,3210,339,0,0,NA,19,5,1352,787,80,255,78,185,24,High
P121_Exp5,23,F,2,10,39,7,3,11,1,1363.23013644869,0,NA,926,NA,0,NA,NA,6,NA,409,789,0,0,0,0,24,High
P121_Exp5,23,F,2,10,40,5,1,9,1,888.238029814602,0,NA,633,NA,0,NA,NA,3,NA,267,791,0,7,0,0,24,High
P121_Exp5,23,F,2,11,41,6,2,10,1,1327.48811728379,0,0,1000,223,0,307,287,7,4,398,795,0,267,0,245,24,High
P121_Exp5,23,F,2,11,42,8,4,12,1,1558.19075494583,0,0,923,384,0,0,NA,7,3,468,786,58,225,50,217,24,High
P121_Exp5,23,F,2,11,43,7,3,11,1,884.848575353317,0,0,616,273,0,0,NA,6,3,265,788,0,67,0,67,24,High
P121_Exp5,23,F,2,11,44,5,1,9,1,310.251137070736,24,199,226,104,0,280,697,3,7,93,786,0,63,0,61,24,High
P121_Exp5,23,F,2,12,45,8,4,12,1,2498.05055168144,460,0,1424,359,0,0,NA,15,3,749,794,63,199,48,196,24,High
P121_Exp5,23,F,2,12,46,6,2,10,1,1961.92111753044,779,13,497,217,0,0,NA,10,3,589,795,59,158,57,148,24,High
P121_Exp5,23,F,2,12,47,7,3,11,1,942.180446636485,443,0,430,849,0,0,NA,5,2,282,791,0,103,0,101,24,High
P121_Exp5,23,F,2,12,48,5,1,9,1,316.886258715385,0,0,0,0,0,0,NA,1,1,95,794,0,0,0,0,24,High
P121_Exp5,23,F,3,13,49,10,2,14,1,1149.84938602356,222,0,557,234,0,207,273,14,6,345,788,0,63,0,63,24,High
P121_Exp5,23,F,3,13,50,11,3,15,1,908.578596601728,189,0,597,207,0,180,253,5,2,273,786,0,68,0,61,24,High
P121_Exp5,23,F,3,13,51,12,4,16,1,1028.34870762126,209,0,393,167,0,626,240,8,6,308,790,0,106,0,90,24,High
P121_Exp5,23,F,3,13,52,9,1,13,1,782.722912952522,190,0,346,167,0,741,216,6,3,235,789,0,0,0,0,24,High
P121_Exp5,23,F,3,14,53,10,2,14,1,2685.66137882226,512,0,493,147,0,306,190,33,3,806,793,195,58,168,52,24,High
P121_Exp5,23,F,3,14,54,11,3,15,1,1518.14834409925,449,0,504,150,0,159,197,20,2,456,793,57,0,56,0,24,High
P121_Exp5,23,F,3,14,55,12,4,16,1,1012.46810653174,0,33,960,140,0,183,333,2,5,304,794,0,72,0,67,24,High
P121_Exp5,23,F,3,14,56,9,1,13,1,1439.89819689887,206,0,691,47,0,461,76,16,6,432,792,68,167,62,157,24,High
P121_Exp5,23,F,3,15,57,10,2,14,1,1177.49793065741,184,274,553,53,0,477,96,8,3,353,795,55,53,53,48,24,High
P121_Exp5,23,F,3,15,58,12,4,16,1,1246.21075716641,410,0,670,244,0,147,240,6,8,374,795,0,159,0,140,24,High
P121_Exp5,23,F,3,15,59,11,3,15,1,831.256453360766,109,0,536,0,0,637,3,7,4,249,799,0,77,0,73,24,High
P121_Exp5,23,F,3,15,60,9,1,13,1,1098.32063283466,17,0,736,147,0,313,183,8,6,330,794,0,144,0,113,24,High
P121_Exp5,23,F,3,16,61,12,4,16,1,3196.71294597538,1785,0,587,147,0,0,NA,28,3,959,795,70,225,70,182,24,High
P121_Exp5,23,F,3,16,62,11,3,15,1,968.409465214791,0,0,470,258,0,164,516,3,4,290,793,79,69,75,69,24,High
P121_Exp5,23,F,3,16,63,10,2,14,1,1148.82154163752,143,0,653,609,0,0,NA,9,1,345,799,0,98,0,82,24,High
P121_Exp5,23,F,3,16,64,9,1,13,1,386.196847774045,70,303,254,140,0,0,NA,2,11,115,793,0,73,0,70,24,High
P121_Exp5,23,F,3,17,65,11,3,15,1,833.887291251813,140,0,530,176,0,80,217,7,2,250,788,0,171,0,161,24,High
P121_Exp5,23,F,3,17,66,12,4,16,1,1789.37680800664,453,0,996,381,0,0,NA,8,5,537,792,48,80,48,74,24,High
P121_Exp5,23,F,3,17,67,10,2,14,1,930.997892257437,123,0,460,317,0,0,NA,8,4,279,789,0,106,0,104,24,High
P121_Exp5,23,F,3,17,68,9,1,13,1,329.39020539925,0,0,324,477,0,10,853,1,5,99,790,0,70,0,69,24,High
P121_Exp5,23,F,3,18,69,11,3,15,1,951.474139623315,88,0,583,374,0,0,NA,8,5,285,788,49,97,46,91,24,High
P121_Exp5,23,F,3,18,70,10,2,14,1,830.204288871755,0,0,454,349,0,0,NA,2,4,249,795,0,81,0,73,24,High
P121_Exp5,23,F,3,18,71,9,1,13,1,1585.01668273857,256,0,849,276,0,133,606,21,2,475,788,56,81,56,75,24,High
P121_Exp5,23,F,3,18,72,12,4,16,1,397.300895148874,0,10,70,400,0,0,NA,6,3,119,790,0,78,0,68,24,High
P122_Exp5,19,F,1,1,1,3,3,7,4,5199.82293257635,409,0,4335,500,0,164,333,14,3,1560,793,0,132,0,131,4,Low
P122_Exp5,19,F,1,1,2,2,2,6,3,3630.23458233329,116,130,3129,253,0,177,306,12,4,1089,799,0,55,0,48,4,Low
P122_Exp5,19,F,1,1,3,4,4,8,1,1334.91129562208,197,150,793,421,183,173,267,5,4,401,788,0,62,0,57,4,Low
P122_Exp5,19,F,1,1,4,1,1,5,2,2502.33472996297,216,114,1871,456,153,197,233,9,4,751,787,0,52,0,52,4,Low
P122_Exp5,19,F,1,2,5,4,4,8,1,2358.10030122775,190,0,1307,393,147,187,210,9,4,707,791,51,64,50,64,4,Low
P122_Exp5,19,F,1,2,6,3,3,7,3,5035.47108467683,587,0,3725,367,106,156,287,16,4,1511,788,39,193,39,193,4,Low
P122_Exp5,19,F,1,2,7,2,2,6,3,5254.38145869521,660,160,3516,400,0,157,240,15,4,1577,787,114,324,112,320,4,Low
P122_Exp5,19,F,1,2,8,1,1,5,1,1152.39830356586,220,0,746,649,0,143,270,4,3,346,792,0,95,0,91,4,Low
P122_Exp5,19,F,1,3,9,2,2,6,1,1461.78117026648,321,220,749,403,0,0,NA,7,2,438,790,57,58,55,58,4,Low
P122_Exp5,19,F,1,3,10,3,3,7,1,3727.92715915602,487,0,2521,230,0,230,267,11,3,1119,790,69,52,60,49,4,Low
P122_Exp5,19,F,1,3,11,1,1,5,1,1174.85429271073,167,0,894,708,0,0,NA,5,2,352,791,0,74,0,74,4,Low
P122_Exp5,19,F,1,3,12,4,4,8,1,2330.29900927431,870,0,1256,640,0,0,NA,7,2,700,789,0,62,0,62,4,Low
P122_Exp5,19,F,1,4,13,3,3,7,1,4316.01329499063,1121,0,2285,593,0,0,NA,15,2,1295,789,106,122,96,119,4,Low
P122_Exp5,19,F,1,4,14,2,2,6,1,1210.8851664434,207,0,723,587,0,0,NA,4,2,363,790,0,51,0,50,4,Low
P122_Exp5,19,F,1,4,15,1,1,5,1,1285.93700666534,226,0,764,607,0,0,NA,5,2,386,788,0,97,0,94,4,Low
P122_Exp5,19,F,1,4,16,4,4,8,1,800.290561241127,496,734,220,0,0,0,NA,3,2,240,788,0,129,0,129,4,Low
P122_Exp5,19,F,1,5,17,1,1,5,1,1914.36464795515,431,0,1212,826,0,0,NA,5,4,575,789,41,3,41,0,4,Low
P122_Exp5,19,F,1,5,18,4,4,8,1,1266.0602285232,103,0,990,444,0,0,NA,7,3,380,793,0,58,0,55,4,Low
P122_Exp5,19,F,1,5,19,3,3,7,1,483.500729602383,137,0,267,501,0,0,NA,3,3,145,789,0,79,0,79,4,Low
P122_Exp5,19,F,1,5,20,2,2,6,1,365.968494797926,0,0,200,509,0,0,NA,2,2,110,788,0,72,0,64,4,Low
P122_Exp5,19,F,1,6,21,3,3,7,1,3228.76513606388,748,0,1511,657,0,0,NA,10,4,969,795,217,58,206,58,4,Low
P122_Exp5,19,F,1,6,22,4,4,8,1,1111.14586088843,237,0,763,346,0,0,NA,4,3,333,791,0,230,0,225,4,Low
P122_Exp5,19,F,1,6,23,1,1,5,1,1152.19776937738,217,0,659,677,0,0,NA,4,2,346,788,0,0,0,0,4,Low
P122_Exp5,19,F,1,6,24,2,2,6,1,541.902258783011,216,0,251,860,0,0,NA,3,2,163,785,0,0,0,0,4,Low
P122_Exp5,19,F,2,7,25,7,3,11,1,8625.41706844604,1202,0,2803,403,107,390,313,22,4,2588,791,1077,0,1064,0,4,Low
P122_Exp5,19,F,2,7,26,5,1,9,1,1467.19943338394,366,0,923,446,0,333,543,6,3,440,788,0,47,0,45,4,Low
P122_Exp5,19,F,2,7,27,8,4,12,1,1699.22133001091,307,0,904,664,194,147,773,5,4,510,789,0,57,0,52,4,Low
P122_Exp5,19,F,2,7,28,6,2,10,1,683.842917729635,233,0,359,293,0,216,494,4,6,205,788,0,108,0,92,4,Low
P122_Exp5,19,F,2,8,29,8,4,12,1,1496.92201353355,297,0,981,326,0,210,453,5,4,450,794,0,71,0,64,4,Low
P122_Exp5,19,F,2,8,30,7,3,11,1,2896.99924053093,706,0,1393,296,0,377,570,13,3,869,790,58,15,54,0,4,Low
P122_Exp5,19,F,2,8,31,5,1,9,1,1960.5600450559,260,299,1278,167,213,143,600,6,4,588,810,0,111,0,106,4,Low
P122_Exp5,19,F,2,8,32,6,2,10,1,1083.70169046066,247,0,502,487,0,360,413,5,3,325,789,0,44,0,44,4,Low
P122_Exp5,19,F,2,9,33,8,4,12,1,2261.58404942544,197,0,1724,533,0,0,NA,9,3,678,795,0,47,0,30,4,Low
P122_Exp5,19,F,2,9,34,7,3,11,1,837.778934523158,133,0,450,484,0,317,580,4,4,252,787,0,79,0,79,4,Low
P122_Exp5,19,F,2,9,35,5,1,9,1,1290.22843830717,216,0,913,797,0,0,NA,4,2,387,786,0,0,0,0,4,Low
P122_Exp5,19,F,2,9,36,6,2,10,1,698.579193938713,170,0,300,774,0,0,NA,5,4,210,793,0,14,0,0,4,Low
P122_Exp5,19,F,2,10,37,7,3,11,1,6373.43775333466,873,0,3652,314,0,550,343,23,4,1912,787,297,21,289,21,4,Low
P122_Exp5,19,F,2,10,38,6,2,10,1,2913.02106889088,984,0,1031,483,0,210,320,9,3,874,790,116,20,115,19,4,Low
P122_Exp5,19,F,2,10,39,5,1,9,1,1488.77989879293,290,0,1054,400,0,0,NA,6,1,447,792,0,136,0,131,4,Low
P122_Exp5,19,F,2,10,40,8,4,12,1,1464.37744801005,253,0,850,43,166,636,80,5,4,439,794,0,51,0,51,4,Low
P122_Exp5,19,F,2,11,41,5,1,9,1,984.223506020498,210,0,623,519,0,0,NA,4,3,295,793,0,46,0,46,4,Low
P122_Exp5,19,F,2,11,42,8,4,12,1,1293.02866358739,153,0,930,664,0,0,NA,6,3,388,786,0,70,0,70,4,Low
P122_Exp5,19,F,2,11,43,6,2,10,1,950.391681670226,330,0,514,566,0,0,NA,4,2,286,788,0,208,0,193,4,Low
P122_Exp5,19,F,2,11,44,7,3,11,1,540.111531143339,246,0,233,190,0,237,260,3,2,162,786,0,43,0,43,4,Low
P122_Exp5,19,F,2,12,45,8,4,12,1,2944.1708551276,612,0,1292,677,203,0,NA,13,3,884,785,80,106,61,104,4,Low
P122_Exp5,19,F,2,12,46,5,1,9,1,1206.258800039,337,0,737,628,0,0,NA,5,2,362,792,0,55,0,50,4,Low
P122_Exp5,19,F,2,12,47,6,2,10,1,971.301424218836,137,0,534,223,0,0,NA,4,3,291,792,15,30,0,30,4,Low
P122_Exp5,19,F,2,12,48,7,3,11,1,615.698840314508,173,0,143,737,153,0,NA,4,2,185,794,0,0,0,0,4,Low
P122_Exp5,19,F,3,13,49,10,2,14,1,4112.57434698382,590,0,2574,250,0,497,290,17,3,1234,796,104,59,98,50,4,Low
P122_Exp5,19,F,3,13,50,12,4,16,1,1414.80240982492,323,0,941,429,0,0,NA,6,5,425,789,0,58,0,58,4,Low
P122_Exp5,19,F,3,13,51,11,3,15,1,1538.82683232769,163,0,844,0,0,680,230,10,5,461,792,0,45,0,45,4,Low
P122_Exp5,19,F,3,13,52,9,1,13,1,448.434126652501,224,43,160,230,0,527,363,3,3,135,793,0,56,0,50,4,Low
P122_Exp5,19,F,3,14,53,10,2,14,1,1996.67582581787,166,0,956,190,0,164,309,15,12,599,789,46,0,46,0,4,Low
P122_Exp5,19,F,3,14,54,11,3,15,1,1330.26999581853,280,0,902,188,0,426,293,8,6,399,790,0,71,0,67,4,Low
P122_Exp5,19,F,3,14,55,9,1,13,1,1345.55795438064,213,0,833,253,0,410,223,8,5,403,790,0,61,0,61,4,Low
P122_Exp5,19,F,3,14,56,12,4,16,1,550.303361294937,220,0,0,187,0,696,227,2,3,165,794,0,0,0,0,4,Low
P122_Exp5,19,F,3,15,57,10,2,14,1,3601.74464744341,513,0,2211,290,0,480,326,15,3,1080,788,121,50,119,50,4,Low
P122_Exp5,19,F,3,15,58,9,1,13,1,4223.23380579655,997,0,1617,400,0,237,276,21,8,1267,787,174,167,172,159,4,Low
P122_Exp5,19,F,3,15,59,12,4,16,1,1144.76392432698,250,0,740,300,0,196,337,5,2,344,790,0,370,0,370,4,Low
P122_Exp5,19,F,3,15,60,11,3,15,1,647.46132250184,160,0,211,723,0,0,NA,6,2,194,789,0,0,0,0,4,Low
P122_Exp5,19,F,3,16,61,12,4,16,1,961.106180719071,210,0,297,690,0,0,NA,7,5,288,791,0,375,0,373,4,Low
P122_Exp5,19,F,3,16,62,9,1,13,1,1125.17685408784,240,0,671,853,0,0,NA,6,5,337,791,0,0,0,0,4,Low
P122_Exp5,19,F,3,16,63,10,2,14,1,949.610878340536,330,0,387,133,37,363,3,10,4,285,789,0,62,0,60,4,Low
P122_Exp5,19,F,3,16,64,11,3,15,1,580.31564934754,136,0,186,660,0,0,NA,3,11,175,789,0,0,0,0,4,Low
P122_Exp5,19,F,3,17,65,10,2,14,1,880.034901481849,186,0,533,343,0,193,307,6,3,264,790,0,221,0,213,4,Low
P122_Exp5,19,F,3,17,66,11,3,15,1,1064.4721684148,374,0,498,496,0,0,NA,7,5,320,789,0,138,0,133,4,Low
P122_Exp5,19,F,3,17,67,9,1,13,1,1099.5511447527,260,0,654,900,0,0,NA,5,4,330,788,0,0,0,0,4,Low
P122_Exp5,19,F,3,17,68,12,4,16,1,940.277078516374,297,NA,334,NA,0,NA,NA,5,NA,282,787,0,0,0,0,4,Low
P122_Exp5,19,F,3,18,69,11,3,15,1,863.492110900552,190,0,454,537,0,210,364,4,9,259,794,0,63,0,63,4,Low
P122_Exp5,19,F,3,18,70,12,4,16,1,1032.93539385777,387,0,463,747,0,0,NA,4,7,310,794,0,0,0,0,4,Low
P122_Exp5,19,F,3,18,71,10,2,14,3,3668.79688019981,280,0,2617,400,0,0,NA,19,4,1101,793,63,193,55,188,4,Low
P122_Exp5,19,F,3,18,72,9,1,13,1,1019.7440842403,110,260,457,287,0,0,NA,4,3,306,793,0,294,0,294,4,Low
P123_Exp5,22,M,1,1,1,3,3,7,3,4111.68170666667,164,40,3091,173,0,543,190,14,3,1234,795,161,112,134,100,36,High
P123_Exp5,22,M,1,1,2,1,1,5,3,9492.56789333333,655,0,6924,256,16,206,230,37,3,2848,796,388,76,372,76,36,High
P123_Exp5,22,M,1,1,3,4,4,8,2,14483.1355733334,1890,0,10468,314,0,246,294,28,4,4345,795,516,146,483,134,36,High
P123_Exp5,22,M,1,1,4,2,2,6,1,1760.9979733333,214,0,1233,183,0,400,204,8,3,528,795,55,204,53,186,36,High
P123_Exp5,22,M,1,2,5,4,4,8,1,4634.83050666667,1083,0,2827,80,0,0,NA,16,2,1391,793,134,228,125,208,36,High
P123_Exp5,22,M,1,2,6,3,3,7,1,4501.45706666666,1853,0,1901,524,0,0,NA,10,5,1351,793,189,218,173,198,36,High
P123_Exp5,22,M,1,2,7,2,2,6,1,4820.10752000002,729,0,2392,319,0,220,330,15,2,1446,793,291,122,279,109,36,High
P123_Exp5,22,M,1,2,8,1,1,5,1,2326.91711999996,567,0,1024,219,0,487,267,9,4,698,790,108,130,91,120,36,High
P123_Exp5,22,M,1,3,9,2,2,6,1,1843.60149333332,453,0,1237,0,0,243,430,3,2,554,790,32,302,32,297,36,High
P123_Exp5,22,M,1,3,10,4,4,8,1,2646.30869333331,709,0,1467,180,0,553,213,7,2,794,795,95,322,90,322,36,High
P123_Exp5,22,M,1,3,11,1,1,5,1,3528.16383999999,239,0,2309,263,0,446,344,14,4,1058,811,127,247,94,240,36,High
P123_Exp5,22,M,1,3,12,3,3,7,1,4762.77888000004,1520,26,2095,160,0,476,180,14,3,1429,820,273,207,243,194,36,High
P123_Exp5,22,M,1,4,13,4,4,8,1,2820.48639999999,423,0,1691,351,0,63,314,11,12,847,815,126,282,114,276,36,High
P123_Exp5,22,M,1,4,14,3,3,7,1,3875.86133333332,177,0,2259,451,0,0,NA,24,14,1163,796,236,242,183,174,36,High
P123_Exp5,22,M,1,4,15,1,1,5,1,4043.24053333335,431,0,544,314,0,0,NA,73,21,1213,801,175,130,139,75,36,High
P123_Exp5,22,M,1,4,16,2,2,6,1,1172.01450666664,40,123,557,130,0,306,310,21,8,352,807,7,161,0,137,36,High
P123_Exp5,22,M,1,5,17,1,1,5,1,4693.8338133333,367,97,1040,562,0,0,NA,53,12,1408,791,536,97,412,95,36,High
P123_Exp5,22,M,1,5,18,3,3,7,1,1630.35989333332,257,13,1020,170,0,603,197,7,3,489,799,41,101,31,77,36,High
P123_Exp5,22,M,1,5,19,4,4,8,1,2655.38517333329,333,16,1406,473,0,0,NA,28,13,797,784,96,141,68,133,36,High
P123_Exp5,22,M,1,5,20,2,2,6,1,1369.21002666668,214,57,952,300,0,0,NA,13,5,411,786,27,111,0,108,36,High
P123_Exp5,22,M,1,6,21,1,1,5,1,2499.61941333333,237,328,1853,260,0,0,NA,9,12,750,793,80,206,67,191,36,High
P123_Exp5,22,M,1,6,22,4,4,8,1,1586.55445333341,213,0,1174,406,0,210,207,12,5,476,781,0,141,0,113,36,High
P123_Exp5,22,M,1,6,23,2,2,6,1,4855.28832,2250,363,1501,0,0,0,NA,49,6,1457,797,208,153,186,89,36,High
P123_Exp5,22,M,1,6,24,3,3,7,1,1856.09344,273,0,1210,0,0,780,156,9,3,557,791,82,98,68,69,36,High
P123_Exp5,22,M,2,7,25,6,2,10,1,14306.6705066667,3431,0,7489,140,0,593,190,57,2,4293,792,639,74,553,36,36,High
P123_Exp5,22,M,2,7,26,7,3,11,1,7415.12832000001,2762,0,2989,207,0,283,220,26,6,2225,794,285,162,255,145,36,High
P123_Exp5,22,M,2,7,27,8,4,12,1,7952.07807999998,2490,0,1186,327,0,244,243,16,3,2386,790,603,247,306,238,36,High
P123_Exp5,22,M,2,7,28,5,1,9,1,3740.43690666667,719,23,1511,0,0,503,154,21,4,1123,791,301,65,284,43,36,High
P123_Exp5,22,M,2,8,29,7,3,11,1,8713.45024000004,1387,0,5075,263,0,493,287,33,2,2615,800,476,77,450,73,36,High
P123_Exp5,22,M,2,8,30,6,2,10,2,10733.6234666667,2933,0,5832,186,0,580,200,36,2,3221,804,371,100,343,99,36,High
P123_Exp5,22,M,2,8,31,8,4,12,1,3225.80778666668,874,0,1728,0,0,407,167,10,3,968,796,121,82,116,72,36,High
P123_Exp5,22,M,2,8,32,5,1,9,1,7867.48074666673,3273,197,1484,186,0,344,223,92,5,2361,794,385,86,349,82,36,High
P123_Exp5,22,M,2,9,33,8,4,12,1,4196.92032,1578,0,1496,80,0,654,133,25,6,1259,805,202,332,181,211,36,High
P123_Exp5,22,M,2,9,34,7,3,11,2,8543.49951999995,494,263,3181,167,0,353,193,90,8,2564,811,512,89,343,80,36,High
P123_Exp5,22,M,2,9,35,5,1,9,1,4952.77397333325,1144,0,1752,194,0,230,203,50,2,1486,793,250,109,242,99,36,High
P123_Exp5,22,M,2,9,36,6,2,10,1,4271.37493333328,756,111,2021,87,0,376,217,35,9,1282,792,252,211,204,199,36,High
P123_Exp5,22,M,2,10,37,8,4,12,1,4636.82816000005,2028,120,1056,240,0,300,267,46,7,1392,792,218,120,164,103,36,High
P123_Exp5,22,M,2,10,38,6,2,10,2,6975.22175999995,1176,36,2294,0,0,223,177,92,13,2093,795,454,156,321,154,36,High
P123_Exp5,22,M,2,10,39,5,1,9,1,3986.40810666666,877,20,1419,260,0,0,NA,52,3,1196,793,181,253,161,235,36,High
P123_Exp5,22,M,2,10,40,7,3,11,2,7382.94997333333,1177,220,4767,203,0,203,240,59,11,2215,795,238,122,185,93,36,High
P123_Exp5,22,M,2,11,41,6,2,10,1,4172.98602666665,1406,406,1591,194,0,210,210,30,4,1252,797,175,175,159,164,36,High
P123_Exp5,22,M,2,11,42,5,1,9,1,4400.23509333332,747,467,2155,0,0,0,NA,44,10,1320,794,171,156,141,138,36,High
P123_Exp5,22,M,2,11,43,8,4,12,1,2786.8219733333,373,56,1577,280,0,210,257,22,6,836,792,120,176,119,153,36,High
P123_Exp5,22,M,2,11,44,7,3,11,1,3680.38911999997,944,65,1555,203,0,190,244,40,8,1105,794,104,175,101,170,36,High
P123_Exp5,22,M,2,12,45,5,1,9,1,2168.84991999996,1003,377,517,310,0,0,NA,20,10,651,793,1,104,0,94,36,High
P123_Exp5,22,M,2,12,46,8,4,12,1,1430.06421333337,310,43,640,320,0,310,414,17,8,429,800,21,336,0,310,36,High
P123_Exp5,22,M,2,12,47,7,3,11,1,3479.17653333332,880,110,1990,360,0,0,NA,18,6,1044,795,104,316,95,283,36,High
P123_Exp5,22,M,2,12,48,6,2,10,1,4206.63509333326,1186,0,2116,297,0,0,NA,23,6,1262,792,146,111,140,110,36,High
P123_Exp5,22,M,3,13,49,11,3,15,2,8609.98997333331,1816,67,4282,183,0,356,190,31,7,2583,796,583,129,541,97,36,High
P123_Exp5,22,M,3,13,50,12,4,16,1,2482.54421333343,643,0,1359,219,0,466,244,23,3,745,794,53,105,46,100,36,High
P123_Exp5,22,M,3,13,51,10,2,14,1,2826.13589333334,708,0,1344,300,0,423,317,28,3,848,791,107,69,84,60,36,High
P123_Exp5,22,M,3,13,52,9,1,13,1,3190.25834666661,681,0,1783,237,0,450,310,21,3,957,797,97,66,75,63,36,High
P123_Exp5,22,M,3,14,53,12,4,16,1,5661.59872000003,1959,0,1570,237,0,483,260,61,2,1699,795,315,199,287,196,36,High
P123_Exp5,22,M,3,14,54,10,2,14,1,2732.66474666673,624,0,1590,0,0,784,26,16,1,820,794,51,32,26,29,36,High
P123_Exp5,22,M,3,14,55,11,3,15,1,5731.30026666661,1305,0,2892,194,0,320,230,36,2,1720,794,234,97,221,95,36,High
P123_Exp5,22,M,3,14,56,9,1,13,1,2401.30261333331,518,0,1253,220,0,483,170,19,4,721,793,52,120,52,107,36,High
P123_Exp5,22,M,3,15,57,10,2,14,1,2161.24501333331,857,0,684,153,0,367,320,21,6,649,802,67,157,61,157,36,High
P123_Exp5,22,M,3,15,58,12,4,16,1,1764.15189333329,200,349,1290,293,0,0,NA,9,8,529,794,35,215,34,202,36,High
P123_Exp5,22,M,3,15,59,11,3,15,1,1170.45674666667,309,217,667,296,0,0,NA,8,4,351,798,38,131,30,125,36,High
P123_Exp5,22,M,3,15,60,9,1,13,1,1415.19658666675,444,579,863,224,0,0,NA,8,3,424,794,0,123,0,108,36,High
P123_Exp5,22,M,3,16,61,11,3,15,1,4435.44874666668,1690,43,1838,453,0,0,NA,37,6,1331,793,154,191,133,167,36,High
P123_Exp5,22,M,3,16,62,12,4,16,1,1980.64554666666,107,325,993,290,0,0,NA,17,8,594,795,56,175,53,159,36,High
P123_Exp5,22,M,3,16,63,9,1,13,1,2209.29877333333,888,864,1026,0,0,0,NA,13,9,662,791,46,136,32,131,36,High
P123_Exp5,22,M,3,16,64,10,2,14,1,1908.22186666674,444,227,1352,294,0,0,NA,7,5,573,791,9,278,0,257,36,High
P123_Exp5,22,M,3,17,65,9,1,13,1,1508.97450666662,297,603,750,203,0,0,NA,8,5,453,791,33,225,28,191,36,High
P123_Exp5,22,M,3,17,66,11,3,15,1,3596.10837333332,765,187,2060,290,0,0,NA,25,4,1079,793,125,377,125,355,36,High
P123_Exp5,22,M,3,17,67,10,2,14,1,1551.72778666667,483,584,963,116,0,0,NA,9,3,466,798,0,158,0,149,36,High
P123_Exp5,22,M,3,17,68,12,4,16,1,1301.06367999997,390,463,793,263,0,0,NA,7,4,390,794,0,196,0,194,36,High
P123_Exp5,22,M,3,18,69,9,1,13,1,1362.16661333333,434,559,565,34,0,0,NA,10,4,409,794,0,158,0,130,36,High
P123_Exp5,22,M,3,18,70,10,2,14,1,1815.65055999999,392,478,1173,266,0,0,NA,9,7,544,791,41,139,41,109,36,High
P123_Exp5,22,M,3,18,71,11,3,15,1,3644.0209066667,317,537,2136,290,0,0,NA,16,3,1094,785,172,125,172,125,36,High
P123_Exp5,22,M,3,18,72,12,4,16,1,2892.40064000001,2057,0,666,176,0,253,380,14,4,868,791,0,251,0,229,36,High
P124_Exp5,18,F,1,1,1,1,1,5,2,9619.44116506356,488,0,4263,197,0,465,253,48,10,2886,793,1252,314,1106,243,16,Low
P124_Exp5,18,F,1,1,2,2,2,6,2,3753.19794740881,614,0,2434,264,0,539,247,23,9,1126,788,102,85,68,50,16,Low
P124_Exp5,18,F,1,1,3,3,3,7,1,2654.54317383637,1022,153,1113,204,0,443,250,16,5,796,797,42,39,36,37,16,Low
P124_Exp5,18,F,1,1,4,4,4,8,1,1896.68691752468,528,11,969,187,0,356,227,14,11,570,794,41,79,0,48,16,Low
P124_Exp5,18,F,1,2,5,3,3,7,1,3122.02994407699,981,136,1463,524,0,0,NA,15,9,937,797,93,180,70,135,16,Low
P124_Exp5,18,F,1,2,6,1,1,5,1,3039.81663722016,943,0,986,247,0,153,240,19,8,912,792,203,392,172,346,16,Low
P124_Exp5,18,F,1,2,7,2,2,6,1,2962.31283885072,1322,0,347,320,0,237,270,19,4,889,794,228,202,168,164,16,Low
P124_Exp5,18,F,1,2,8,4,4,8,1,1198.38943172272,203,0,839,328,0,246,317,9,5,360,788,6,194,0,144,16,Low
P124_Exp5,18,F,1,3,9,3,3,7,1,2097.405077036,768,0,840,394,0,0,NA,10,7,630,788,67,159,62,97,16,Low
P124_Exp5,18,F,1,3,10,1,1,5,1,3577.05174870034,800,0,1128,408,0,70,296,33,12,1073,791,267,236,246,176,16,Low
P124_Exp5,18,F,1,3,11,4,4,8,1,4718.10191192071,1398,0,1623,236,0,170,283,27,4,1416,793,334,213,298,175,16,Low
P124_Exp5,18,F,1,3,12,2,2,6,1,876.992143850202,247,0,481,260,0,127,370,11,8,263,786,2,261,0,241,16,Low
P124_Exp5,18,F,1,4,13,4,4,8,1,2933.4512061555,893,0,853,340,0,0,NA,14,5,880,789,250,336,218,318,16,Low
P124_Exp5,18,F,1,4,14,2,2,6,1,1612.58212733446,490,0,855,404,0,0,NA,17,4,483,790,14,282,0,271,16,Low
P124_Exp5,18,F,1,4,15,3,3,7,1,2119.5958304761,825,0,764,307,0,167,360,16,3,636,793,90,209,75,193,16,Low
P124_Exp5,18,F,1,4,16,1,1,5,1,517.795482404381,153,184,137,0,0,178,316,3,11,155,793,40,393,37,322,16,Low
P124_Exp5,18,F,1,5,17,2,2,6,1,11200.7040796252,3864,104,2193,161,0,210,226,78,6,3361,794,1084,202,953,176,16,Low
P124_Exp5,18,F,1,5,18,4,4,8,1,2410.49907222077,441,127,1049,413,0,77,393,15,6,723,789,155,201,148,169,16,Low
P124_Exp5,18,F,1,5,19,1,1,5,1,1184.37781197736,218,0,657,735,0,0,NA,6,7,356,793,41,188,41,146,16,Low
P124_Exp5,18,F,1,5,20,3,3,7,1,778.05278591859,0,0,487,427,0,0,NA,6,5,233,790,0,342,0,305,16,Low
P124_Exp5,18,F,1,6,21,2,2,6,1,930.913840058565,144,0,513,370,0,0,NA,9,6,280,794,13,371,0,336,16,Low
P124_Exp5,18,F,1,6,22,3,3,7,1,921.62708867636,210,89,459,427,0,0,NA,8,7,276,787,40,458,35,388,16,Low
P124_Exp5,18,F,1,6,23,4,4,8,1,761.744438125334,63,0,296,374,0,227,410,4,3,229,790,62,263,59,206,16,Low
P124_Exp5,18,F,1,6,24,1,1,5,1,407.828587202857,0,307,383,280,0,0,NA,2,5,122,791,0,171,0,163,16,Low
P124_Exp5,18,F,2,7,25,7,3,11,1,3246.24440377875,1071,0,1148,360,0,0,NA,17,5,974,795,251,465,150,358,16,Low
P124_Exp5,18,F,2,7,26,8,4,12,1,2400.340221242,779,0,1091,280,0,329,417,13,12,720,788,79,363,70,87,16,Low
P124_Exp5,18,F,2,7,27,5,1,9,1,3316.92244414853,1021,0,1236,422,0,300,596,26,14,995,787,164,272,126,136,16,Low
P124_Exp5,18,F,2,7,28,6,2,10,1,1410.64755101706,190,0,771,223,0,479,317,11,6,423,789,65,95,49,38,16,Low
P124_Exp5,18,F,2,8,29,5,1,9,1,6237.06730484128,3027,133,1104,426,0,0,NA,36,6,1871,788,459,117,337,112,16,Low
