Experiment,subj,condition,age,sex,phase,block,trial,cue,resp,out,numResp,RT,AOI_cue_p1,AOI_cue_p2,AOI_resp_p1,AOI_resp_p2,AOI_out_p1,AOI_out_p2,tOutFix,nFix_p1,nFix_p2,samples_p1,samples_p2,raw_NA_p1,raw_NA_p2,post_interp_NA_p1,post_interp_NA_p2,ICU,ICU_medSplit,AOI_cue_p2_1s,AOI_resp_p2_1s,AOI_out_p2_1s,tOutFix_1s,ICU_Exp_medSplit
Exp3,P102_Exp3,NA,18,F,1,1,1,1,1,5,1,1736.94522961159,401,130,955,213,0,313,247,12,5,521,253,30,0,30,0,18,Low,NA,NA,NA,NA,Low
Exp3,P102_Exp3,NA,18,F,1,1,2,2,2,6,1,5614.93679689647,517,217,1797,194,190,313,227,27,4,1685,249,650,0,633,0,18,Low,NA,NA,NA,NA,Low
Exp3,P102_Exp3,NA,18,F,1,1,3,4,4,8,2,5686.01749812524,811,190,2102,173,0,306,220,20,6,1706,248,414,0,398,0,18,Low,NA,NA,NA,NA,Low
Exp3,P102_Exp3,NA,18,F,1,1,4,3,3,7,2,4540.414004779,193,203,2114,210,157,230,246,16,6,1362,246,259,0,252,0,18,Low,NA,NA,NA,NA,Low
Exp3,P102_Exp3,NA,18,F,1,2,5,1,1,5,1,2795.30592137417,699,0,1006,369,0,330,150,22,6,839,250,135,0,98,0,18,Low,NA,NA,NA,NA,Low
Exp3,P102_Exp3,NA,18,F,1,2,6,2,2,6,1,1260.23933745728,237,0,675,327,0,380,203,11,4,378,250,37,0,35,0,18,Low,NA,NA,NA,NA,Low
Exp3,P102_Exp3,NA,18,F,1,2,7,4,4,8,2,5122.88623682844,1585,0,2166,553,0,190,230,29,3,1537,247,242,0,233,0,18,Low,NA,NA,NA,NA,Low
Exp3,P102_Exp3,NA,18,F,1,2,8,3,3,7,1,756.889917085573,236,0,323,133,0,540,297,6,2,227,252,18,33,0,30,18,Low,NA,NA,NA,NA,Low
Exp3,P102_Exp3,NA,18,F,1,3,9,2,2,6,2,2313.5291106164,136,0,1589,396,150,300,214,13,4,694,246,52,0,47,0,18,Low,NA,NA,NA,NA,Low
Exp3,P102_Exp3,NA,18,F,1,3,10,1,1,5,3,3510.67008933796,51,50,2341,363,66,110,343,14,4,1053,247,175,29,136,0,18,Low,NA,NA,NA,NA,Low
Exp3,P102_Exp3,NA,18,F,1,3,11,4,4,8,2,2147.54927234026,0,0,1413,527,0,0,NA,8,5,645,249,104,57,102,39,18,Low,NA,NA,NA,NA,Low
Exp3,P102_Exp3,NA,18,F,1,3,12,3,3,7,1,1197.62365024008,0,0,741,461,0,0,NA,7,4,359,249,65,76,52,76,18,Low,NA,NA,NA,NA,Low
Exp3,P102_Exp3,NA,18,F,1,4,13,2,2,6,1,1478.3081563337,193,0,957,780,0,0,NA,3,2,444,249,64,7,63,0,18,Low,NA,NA,NA,NA,Low
Exp3,P102_Exp3,NA,18,F,1,4,14,1,1,5,1,268.044187234409,0,0,217,740,0,0,NA,2,3,81,249,0,0,0,0,18,Low,NA,NA,NA,NA,Low
Exp3,P102_Exp3,NA,18,F,1,4,15,3,3,7,2,1346.62697430485,67,47,918,466,0,0,NA,9,5,404,247,41,0,41,0,18,Low,NA,NA,NA,NA,Low
Exp3,P102_Exp3,NA,18,F,1,4,16,4,4,8,1,303.41625181245,0,366,136,214,0,0,NA,3,3,92,246,38,35,38,35,18,Low,NA,NA,NA,NA,Low
Exp3,P102_Exp3,NA,18,F,1,5,17,2,2,6,2,1944.54107265983,203,0,1160,340,0,167,240,8,5,583,245,51,0,47,0,18,Low,NA,NA,NA,NA,Low
Exp3,P102_Exp3,NA,18,F,1,5,18,3,3,7,1,1853.3532841584,247,417,874,250,0,0,NA,11,6,556,253,112,0,106,0,18,Low,NA,NA,NA,NA,Low
Exp3,P102_Exp3,NA,18,F,1,5,19,1,1,5,2,2315.78640743874,149,446,1217,230,0,0,NA,14,4,695,250,91,32,86,32,18,Low,NA,NA,NA,NA,Low
Exp3,P102_Exp3,NA,18,F,1,5,20,4,4,8,1,1208.03897112182,234,0,597,420,0,0,NA,6,2,362,256,44,112,44,97,18,Low,NA,NA,NA,NA,Low
Exp3,P102_Exp3,NA,18,F,1,6,21,2,2,6,1,976.117570209226,130,0,606,513,0,0,NA,6,4,293,250,23,85,0,76,18,Low,NA,NA,NA,NA,Low
Exp3,P102_Exp3,NA,18,F,1,6,22,1,1,5,1,2962.04795201174,427,0,1555,605,0,83,260,18,6,889,250,170,0,162,0,18,Low,NA,NA,NA,NA,Low
Exp3,P102_Exp3,NA,18,F,1,6,23,4,4,8,1,836.294362613899,304,0,390,801,0,0,NA,3,2,251,253,23,0,0,0,18,Low,NA,NA,NA,NA,Low
Exp3,P102_Exp3,NA,18,F,1,6,24,3,3,7,1,587.4758362379,0,229,463,483,0,0,NA,1,4,177,252,28,0,28,0,18,Low,NA,NA,NA,NA,Low
Exp3,P102_Exp3,NA,18,F,2,7,25,8,4,12,4,4483.65889763727,197,236,3262,406,0,0,NA,23,3,1345,250,103,5,53,0,18,Low,NA,NA,NA,NA,Low
Exp3,P102_Exp3,NA,18,F,2,7,26,6,2,10,2,2311.45655111095,144,273,1511,267,0,0,NA,10,5,693,245,94,51,89,47,18,Low,NA,NA,NA,NA,Low
Exp3,P102_Exp3,NA,18,F,2,7,27,7,3,11,1,4659.64262384978,0,0,2401,286,0,80,237,18,7,1398,251,451,58,444,54,18,Low,NA,NA,NA,NA,Low
Exp3,P102_Exp3,NA,18,F,2,7,28,5,1,9,1,1777.69218416233,0,0,993,453,0,0,NA,8,5,534,250,128,62,90,59,18,Low,NA,NA,NA,NA,Low
Exp3,P102_Exp3,NA,18,F,2,8,29,8,4,12,1,973.602486346863,117,0,700,494,0,0,NA,4,3,292,251,0,61,0,61,18,Low,NA,NA,NA,NA,Low
Exp3,P102_Exp3,NA,18,F,2,8,30,6,2,10,1,551.518166439564,167,214,290,410,0,0,NA,4,4,165,253,0,39,0,39,18,Low,NA,NA,NA,NA,Low
Exp3,P102_Exp3,NA,18,F,2,8,31,7,3,11,1,683.038759821102,296,0,290,597,0,0,NA,3,3,205,253,5,45,0,40,18,Low,NA,NA,NA,NA,Low
Exp3,P102_Exp3,NA,18,F,2,8,32,5,1,9,1,303.105941417471,0,23,281,0,0,103,680,2,3,91,249,0,69,0,45,18,Low,NA,NA,NA,NA,Low
Exp3,P102_Exp3,NA,18,F,2,9,33,8,4,12,1,1966.15050899391,394,0,1044,603,160,0,NA,8,3,590,253,31,53,31,48,18,Low,NA,NA,NA,NA,Low
Exp3,P102_Exp3,NA,18,F,2,9,34,6,2,10,1,1455.9642986078,171,176,447,197,0,338,233,7,4,437,251,199,0,194,0,18,Low,NA,NA,NA,NA,Low
Exp3,P102_Exp3,NA,18,F,2,9,35,7,3,11,1,814.383973494387,0,213,493,533,0,0,NA,3,3,244,254,56,0,51,0,18,Low,NA,NA,NA,NA,Low
Exp3,P102_Exp3,NA,18,F,2,9,36,5,1,9,1,422.192083341542,64,253,300,287,0,0,NA,2,3,127,248,0,47,0,42,18,Low,NA,NA,NA,NA,Low
Exp3,P102_Exp3,NA,18,F,2,10,37,8,4,12,1,763.338819105684,127,0,452,497,0,0,NA,5,5,229,250,10,76,0,43,18,Low,NA,NA,NA,NA,Low
Exp3,P102_Exp3,NA,18,F,2,10,38,5,1,9,1,2045.94857782422,201,163,1141,423,0,0,NA,13,5,614,251,92,52,92,47,18,Low,NA,NA,NA,NA,Low
Exp3,P102_Exp3,NA,18,F,2,10,39,7,3,11,1,1092.95758407097,327,0,593,460,0,0,NA,7,3,328,250,20,67,0,67,18,Low,NA,NA,NA,NA,Low
Exp3,P102_Exp3,NA,18,F,2,10,40,6,2,10,1,369.10757386795,184,0,90,559,0,133,693,5,4,111,249,0,0,0,0,18,Low,NA,NA,NA,NA,Low
Exp3,P102_Exp3,NA,18,F,2,11,41,7,3,11,3,3741.40096087558,292,227,2719,167,0,107,246,19,7,1123,246,95,54,78,30,18,Low,NA,NA,NA,NA,Low
Exp3,P102_Exp3,NA,18,F,2,11,42,5,1,9,3,2688.90386777139,172,0,1556,426,0,0,NA,16,4,806,247,169,69,159,69,18,Low,NA,NA,NA,NA,Low
Exp3,P102_Exp3,NA,18,F,2,11,43,6,2,10,1,1190.53994008709,126,0,807,607,0,0,NA,7,4,357,251,50,55,43,50,18,Low,NA,NA,NA,NA,Low
Exp3,P102_Exp3,NA,18,F,2,11,44,8,4,12,1,839.709889966343,174,0,394,583,0,0,NA,8,2,252,251,0,63,0,55,18,Low,NA,NA,NA,NA,Low
Exp3,P102_Exp3,NA,18,F,2,12,45,5,1,9,1,1563.44791071751,250,0,843,440,0,0,NA,10,4,469,250,87,52,87,50,18,Low,NA,NA,NA,NA,Low
Exp3,P102_Exp3,NA,18,F,2,12,46,8,4,12,1,1262.89418174019,294,0,654,570,0,0,NA,5,3,378,250,43,50,43,45,18,Low,NA,NA,NA,NA,Low
Exp3,P102_Exp3,NA,18,F,2,12,47,7,3,11,1,451.310246400681,235,0,147,776,0,0,NA,6,2,135,249,0,0,0,0,18,Low,NA,NA,NA,NA,Low
Exp3,P102_Exp3,NA,18,F,2,12,48,6,2,10,1,275.578270061942,223,67,0,184,0,370,443,5,3,83,245,0,34,0,32,18,Low,NA,NA,NA,NA,Low
Exp3,P102_Exp3,NA,18,F,3,13,49,9,1,13,4,3365.69838554078,160,200,2771,297,0,0,NA,9,3,1010,250,52,66,39,61,18,Low,NA,NA,NA,NA,Low
Exp3,P102_Exp3,NA,18,F,3,13,50,12,4,16,3,2487.37809450085,130,117,1791,260,0,0,NA,11,5,746,249,109,59,109,59,18,Low,NA,NA,NA,NA,Low
Exp3,P102_Exp3,NA,18,F,3,13,51,10,2,14,2,2003.09736864028,138,0,1437,460,0,0,NA,8,3,601,249,63,75,63,75,18,Low,NA,NA,NA,NA,Low
Exp3,P102_Exp3,NA,18,F,3,13,52,11,3,15,1,1413.09678907237,254,0,897,247,0,0,NA,8,3,424,249,32,151,32,151,18,Low,NA,NA,NA,NA,Low
Exp3,P102_Exp3,NA,18,F,3,14,53,12,4,16,1,1301.46111520935,90,187,780,167,0,0,NA,9,5,390,253,35,84,35,84,18,Low,NA,NA,NA,NA,Low
Exp3,P102_Exp3,NA,18,F,3,14,54,10,2,14,1,1048.9019600268,244,0,587,480,0,0,NA,13,2,315,253,0,55,0,50,18,Low,NA,NA,NA,NA,Low
Exp3,P102_Exp3,NA,18,F,3,14,55,11,3,15,1,728.389959949254,236,0,380,501,0,0,NA,9,3,219,249,0,64,0,64,18,Low,NA,NA,NA,NA,Low
Exp3,P102_Exp3,NA,18,F,3,14,56,9,1,13,1,283.289845605395,37,27,167,190,0,0,NA,2,3,85,250,0,39,0,31,18,Low,NA,NA,NA,NA,Low
Exp3,P102_Exp3,NA,18,F,3,15,57,11,3,15,2,1928.47979299722,216,0,1020,97,104,503,293,7,3,579,250,98,35,98,30,18,Low,NA,NA,NA,NA,Low
Exp3,P102_Exp3,NA,18,F,3,15,58,12,4,16,1,1203.19867230637,58,143,658,181,0,43,350,10,4,361,252,51,76,46,46,18,Low,NA,NA,NA,NA,Low
Exp3,P102_Exp3,NA,18,F,3,15,59,9,1,13,2,1676.76795423358,180,0,1150,334,0,0,NA,5,3,503,245,61,117,42,89,18,Low,NA,NA,NA,NA,Low
Exp3,P102_Exp3,NA,18,F,3,15,60,10,2,14,1,835.187448004945,130,0,476,523,0,0,NA,5,5,251,252,0,76,0,71,18,Low,NA,NA,NA,NA,Low
Exp3,P102_Exp3,NA,18,F,3,16,61,11,3,15,1,821.534998061907,127,67,548,537,0,0,NA,5,4,247,252,9,44,0,37,18,Low,NA,NA,NA,NA,Low
Exp3,P102_Exp3,NA,18,F,3,16,62,12,4,16,1,1181.47422793663,296,0,386,574,0,0,NA,8,4,355,254,95,41,95,41,18,Low,NA,NA,NA,NA,Low
Exp3,P102_Exp3,NA,18,F,3,16,63,10,2,14,1,1028.57662915994,261,0,496,542,0,0,NA,8,2,308,250,0,56,0,51,18,Low,NA,NA,NA,NA,Low
Exp3,P102_Exp3,NA,18,F,3,16,64,9,1,13,1,333.450554996489,297,0,0,470,0,0,NA,3,3,100,250,0,68,0,63,18,Low,NA,NA,NA,NA,Low
Exp3,P102_Exp3,NA,18,F,3,17,65,12,4,16,4,3864.35964371049,670,113,1988,303,0,0,NA,15,4,1159,250,174,90,150,71,18,Low,NA,NA,NA,NA,Low
Exp3,P102_Exp3,NA,18,F,3,17,66,11,3,15,1,1007.5084248665,127,123,723,439,0,0,NA,4,5,303,251,12,25,0,0,18,Low,NA,NA,NA,NA,Low
Exp3,P102_Exp3,NA,18,F,3,17,67,10,2,14,1,727.010769098797,0,0,473,513,0,0,NA,2,2,218,250,59,73,59,73,18,Low,NA,NA,NA,NA,Low
Exp3,P102_Exp3,NA,18,F,3,17,68,9,1,13,1,891.812454192859,37,92,437,366,0,0,NA,6,4,267,251,56,64,51,63,18,Low,NA,NA,NA,NA,Low
Exp3,P102_Exp3,NA,18,F,3,18,69,12,4,16,1,1217.6441041629,183,0,483,293,0,0,NA,10,2,365,253,80,79,80,79,18,Low,NA,NA,NA,NA,Low
Exp3,P102_Exp3,NA,18,F,3,18,70,10,2,14,1,1761.46790098574,147,260,971,87,0,0,NA,14,3,529,250,111,117,99,113,18,Low,NA,NA,NA,NA,Low
Exp3,P102_Exp3,NA,18,F,3,18,71,9,1,13,1,1476.90028893885,423,0,732,733,0,0,NA,7,5,444,250,52,0,47,0,18,Low,NA,NA,NA,NA,Low
Exp3,P102_Exp3,NA,18,F,3,18,72,11,3,15,1,1865.73913641951,359,0,950,614,0,0,NA,9,4,559,254,101,0,99,0,18,Low,NA,NA,NA,NA,Low
Exp3,P103_Exp3,NA,18,F,1,1,1,1,1,5,2,3958.41147576084,530,0,3140,407,0,303,257,11,4,1188,246,0,0,0,0,26,High,NA,NA,NA,NA,High
Exp3,P103_Exp3,NA,18,F,1,1,2,3,3,7,1,4749.56812253777,846,0,3077,257,0,486,287,13,2,1425,253,84,0,84,0,26,High,NA,NA,NA,NA,High
Exp3,P103_Exp3,NA,18,F,1,1,3,4,4,8,2,3287.53998432148,150,59,2922,427,0,213,267,6,4,987,249,0,0,0,0,26,High,NA,NA,NA,NA,High
Exp3,P103_Exp3,NA,18,F,1,1,4,2,2,6,2,3461.079411421,517,0,2609,356,0,360,206,12,4,1039,246,0,0,0,0,26,High,NA,NA,NA,NA,High
Exp3,P103_Exp3,NA,18,F,1,2,5,1,1,5,2,4620.03205084693,527,0,3522,544,0,203,227,15,3,1386,248,0,0,0,0,26,High,NA,NA,NA,NA,High
Exp3,P103_Exp3,NA,18,F,1,2,6,4,4,8,1,2069.02191187601,186,0,1714,469,0,310,257,5,3,620,253,0,0,0,0,26,High,NA,NA,NA,NA,High
Exp3,P103_Exp3,NA,18,F,1,2,7,3,3,7,1,2265.76333869752,367,0,1679,464,0,304,263,6,3,680,250,0,0,0,0,26,High,NA,NA,NA,NA,High
Exp3,P103_Exp3,NA,18,F,1,2,8,2,2,6,2,2744.07498533765,342,0,2197,333,0,327,243,10,3,823,246,0,0,0,0,26,High,NA,NA,NA,NA,High
Exp3,P103_Exp3,NA,18,F,1,3,9,3,3,7,2,5402.77029431672,557,0,4345,544,0,217,216,13,3,1621,248,37,0,36,0,26,High,NA,NA,NA,NA,High
Exp3,P103_Exp3,NA,18,F,1,3,10,2,2,6,1,2034.29754523359,287,0,1554,580,0,190,254,7,3,611,253,0,0,0,0,26,High,NA,NA,NA,NA,High
Exp3,P103_Exp3,NA,18,F,1,3,11,4,4,8,1,2232.33694380815,230,0,1749,765,0,0,NA,7,3,670,254,0,0,0,0,26,High,NA,NA,NA,NA,High
Exp3,P103_Exp3,NA,18,F,1,3,12,1,1,5,2,4087.2994671372,259,167,3360,350,0,134,283,14,4,1226,248,0,0,0,0,26,High,NA,NA,NA,NA,High
Exp3,P103_Exp3,NA,18,F,1,4,13,3,3,7,1,1124.84496029265,0,0,780,796,0,0,NA,4,2,338,251,0,0,0,0,26,High,NA,NA,NA,NA,High
Exp3,P103_Exp3,NA,18,F,1,4,14,2,2,6,2,4207.70868442696,454,0,3112,817,0,0,NA,12,1,1263,246,57,0,41,0,26,High,NA,NA,NA,NA,High
Exp3,P103_Exp3,NA,18,F,1,4,15,4,4,8,1,1240.37048339778,194,0,907,773,0,0,NA,4,2,372,251,0,0,0,0,26,High,NA,NA,NA,NA,High
Exp3,P103_Exp3,NA,18,F,1,4,16,1,1,5,1,1934.53241774978,280,0,1446,736,0,0,NA,7,2,580,253,0,0,0,0,26,High,NA,NA,NA,NA,High
Exp3,P103_Exp3,NA,18,F,1,5,17,4,4,8,1,1593.93044259923,197,0,1026,773,0,0,NA,7,2,479,250,0,0,0,0,26,High,NA,NA,NA,NA,High
Exp3,P103_Exp3,NA,18,F,1,5,18,1,1,5,1,3851.07464514795,529,204,3056,484,0,0,NA,12,3,1155,253,0,17,0,0,26,High,NA,NA,NA,NA,High
Exp3,P103_Exp3,NA,18,F,1,5,19,3,3,7,1,1537.1490080629,150,0,1262,790,0,0,NA,4,2,461,252,0,0,0,0,26,High,NA,NA,NA,NA,High
Exp3,P103_Exp3,NA,18,F,1,5,20,2,2,6,1,2147.23527488786,227,0,1689,763,0,0,NA,8,1,644,250,0,0,0,0,26,High,NA,NA,NA,NA,High
Exp3,P103_Exp3,NA,18,F,1,6,21,1,1,5,1,1539.57591338713,197,580,1150,187,0,0,NA,7,3,461,252,0,0,0,0,26,High,NA,NA,NA,NA,High
Exp3,P103_Exp3,NA,18,F,1,6,22,3,3,7,1,1509.62446054928,260,183,1161,596,0,0,NA,4,2,453,250,0,0,0,0,26,High,NA,NA,NA,NA,High
Exp3,P103_Exp3,NA,18,F,1,6,23,4,4,8,1,795.016754400422,210,170,475,487,0,0,NA,3,4,239,249,0,0,0,0,26,High,NA,NA,NA,NA,High
Exp3,P103_Exp3,NA,18,F,1,6,24,2,2,6,1,811.101944814254,153,0,547,413,0,386,447,4,2,243,251,0,0,0,0,26,High,NA,NA,NA,NA,High
Exp3,P103_Exp3,NA,18,F,2,7,25,5,1,9,4,3973.36139367189,146,169,3481,226,0,220,264,9,4,1192,247,0,0,0,0,26,High,NA,NA,NA,NA,High
Exp3,P103_Exp3,NA,18,F,2,7,26,7,3,11,1,1639.45302866614,190,344,1046,210,0,167,240,5,4,492,252,54,0,54,0,26,High,NA,NA,NA,NA,High
Exp3,P103_Exp3,NA,18,F,2,7,27,8,4,12,1,1877.21248253183,227,0,1458,322,0,403,277,7,4,564,250,0,0,0,0,26,High,NA,NA,NA,NA,High
Exp3,P103_Exp3,NA,18,F,2,7,28,6,2,10,1,819.060926492057,0,303,793,449,0,0,NA,2,3,245,253,0,0,0,0,26,High,NA,NA,NA,NA,High
Exp3,P103_Exp3,NA,18,F,2,8,29,8,4,12,1,2334.56882132987,800,196,1267,321,0,217,203,9,4,700,254,17,0,0,0,26,High,NA,NA,NA,NA,High
Exp3,P103_Exp3,NA,18,F,2,8,30,6,2,10,1,4482.52431961373,609,0,3472,204,0,520,240,14,3,1345,254,0,0,0,0,26,High,NA,NA,NA,NA,High
Exp3,P103_Exp3,NA,18,F,2,8,31,5,1,9,1,1005.15566454487,210,0,647,461,0,203,253,5,3,301,252,0,0,0,0,26,High,NA,NA,NA,NA,High
Exp3,P103_Exp3,NA,18,F,2,8,32,7,3,11,1,822.667476842526,150,0,444,390,0,352,257,4,4,247,251,0,0,0,0,26,High,NA,NA,NA,NA,High
Exp3,P103_Exp3,NA,18,F,2,9,33,8,4,12,1,2105.76296439876,939,359,803,307,134,0,NA,9,5,632,252,0,0,0,0,26,High,NA,NA,NA,NA,High
Exp3,P103_Exp3,NA,18,F,2,9,34,6,2,10,1,1175.08974870952,250,197,790,514,0,0,NA,5,4,352,251,0,0,0,0,26,High,NA,NA,NA,NA,High
Exp3,P103_Exp3,NA,18,F,2,9,35,5,1,9,1,695.786813874747,0,0,650,767,0,0,NA,2,2,208,250,0,0,0,0,26,High,NA,NA,NA,NA,High
Exp3,P103_Exp3,NA,18,F,2,9,36,7,3,11,1,380.917279656387,0,183,373,520,0,0,NA,1,4,114,250,0,0,0,0,26,High,NA,NA,NA,NA,High
Exp3,P103_Exp3,NA,18,F,2,10,37,8,4,12,1,2987.83408057261,0,0,2215,823,143,0,NA,9,2,897,252,46,0,45,0,26,High,NA,NA,NA,NA,High
Exp3,P103_Exp3,NA,18,F,2,10,38,7,3,11,2,4683.81317537887,583,0,3467,799,0,0,NA,12,2,1405,253,51,0,50,0,26,High,NA,NA,NA,NA,High
Exp3,P103_Exp3,NA,18,F,2,10,39,5,1,9,1,1047.36721522568,164,0,746,786,0,0,NA,5,2,314,249,0,0,0,0,26,High,NA,NA,NA,NA,High
Exp3,P103_Exp3,NA,18,F,2,10,40,6,2,10,1,303.4802848656,47,210,200,277,0,217,467,2,4,91,248,0,0,0,0,26,High,NA,NA,NA,NA,High
Exp3,P103_Exp3,NA,18,F,2,11,41,7,3,11,3,6588.33920288225,1124,0,3837,543,0,210,380,29,3,1977,248,172,0,85,0,26,High,NA,NA,NA,NA,High
Exp3,P103_Exp3,NA,18,F,2,11,42,8,4,12,1,1077.3307422196,154,0,697,643,0,0,NA,8,2,323,251,0,13,0,0,26,High,NA,NA,NA,NA,High
Exp3,P103_Exp3,NA,18,F,2,11,43,5,1,9,1,1107.14485153449,86,0,647,780,0,0,NA,5,2,332,252,0,0,0,0,26,High,NA,NA,NA,NA,High
Exp3,P103_Exp3,NA,18,F,2,11,44,6,2,10,1,2030.65115016898,390,0,1227,823,0,0,NA,12,1,610,249,2,0,0,0,26,High,NA,NA,NA,NA,High
Exp3,P103_Exp3,NA,18,F,2,12,45,5,1,9,1,1406.71160063766,220,190,948,544,0,0,NA,8,3,422,251,0,0,0,0,26,High,NA,NA,NA,NA,High
Exp3,P103_Exp3,NA,18,F,2,12,46,7,3,11,1,2455.13319152269,293,0,1871,230,0,220,256,6,3,737,251,26,0,26,0,26,High,NA,NA,NA,NA,High
Exp3,P103_Exp3,NA,18,F,2,12,47,8,4,12,1,1726.36582096266,284,0,924,770,0,0,NA,10,3,518,251,0,0,0,0,26,High,NA,NA,NA,NA,High
Exp3,P103_Exp3,NA,18,F,2,12,48,6,2,10,1,561.086323875315,126,0,346,557,0,0,NA,5,2,169,250,0,0,0,0,26,High,NA,NA,NA,NA,High
Exp3,P103_Exp3,NA,18,F,3,13,49,9,1,13,1,1997.39832126943,239,123,1519,373,0,216,207,7,4,599,250,0,0,0,0,26,High,NA,NA,NA,NA,High
Exp3,P103_Exp3,NA,18,F,3,13,50,10,2,14,3,3364.46443119712,0,0,2890,340,0,364,370,7,2,1010,249,0,0,0,0,26,High,NA,NA,NA,NA,High
Exp3,P103_Exp3,NA,18,F,3,13,51,11,3,15,1,2470.64033172546,216,0,1874,154,0,657,180,9,2,741,252,41,0,41,0,26,High,NA,NA,NA,NA,High
Exp3,P103_Exp3,NA,18,F,3,13,52,12,4,16,1,1013.18890228094,282,120,596,180,0,240,213,6,4,304,249,0,0,0,0,26,High,NA,NA,NA,NA,High
Exp3,P103_Exp3,NA,18,F,3,14,53,10,2,14,4,5020.05366358571,1056,0,2802,330,0,73,410,24,4,1507,248,56,0,52,0,26,High,NA,NA,NA,NA,High
Exp3,P103_Exp3,NA,18,F,3,14,54,11,3,15,1,1916.91682808278,384,0,1251,246,0,457,277,6,2,575,253,27,0,27,0,26,High,NA,NA,NA,NA,High
Exp3,P103_Exp3,NA,18,F,3,14,55,12,4,16,1,1999.65045318822,474,0,1156,446,0,263,234,11,3,600,254,0,0,0,0,26,High,NA,NA,NA,NA,High
Exp3,P103_Exp3,NA,18,F,3,14,56,9,1,13,1,944.920115875448,63,0,530,644,0,0,NA,6,3,284,250,0,0,0,0,26,High,NA,NA,NA,NA,High
Exp3,P103_Exp3,NA,18,F,3,15,57,10,2,14,1,1456.49606186316,333,177,980,354,0,187,193,5,4,437,251,1,0,0,0,26,High,NA,NA,NA,NA,High
Exp3,P103_Exp3,NA,18,F,3,15,58,11,3,15,1,1246.9231277737,357,0,813,250,0,410,283,4,2,374,249,0,0,0,0,26,High,NA,NA,NA,NA,High
Exp3,P103_Exp3,NA,18,F,3,15,59,9,1,13,1,1541.02239725717,186,0,942,724,0,0,NA,13,3,462,252,0,0,0,0,26,High,NA,NA,NA,NA,High
Exp3,P103_Exp3,NA,18,F,3,15,60,12,4,16,1,543.971811675419,0,0,314,773,0,0,NA,2,2,163,251,0,0,0,0,26,High,NA,NA,NA,NA,High
Exp3,P103_Exp3,NA,18,F,3,16,61,9,1,13,1,1346.9022696695,167,394,967,290,0,0,NA,7,3,404,249,0,0,0,0,26,High,NA,NA,NA,NA,High
Exp3,P103_Exp3,NA,18,F,3,16,62,12,4,16,1,1460.98613856748,143,0,1073,650,0,0,NA,5,3,438,250,0,0,0,0,26,High,NA,NA,NA,NA,High
Exp3,P103_Exp3,NA,18,F,3,16,63,11,3,15,1,867.37717036749,330,0,450,797,0,0,NA,4,2,260,253,0,0,0,0,26,High,NA,NA,NA,NA,High
Exp3,P103_Exp3,NA,18,F,3,16,64,10,2,14,1,505.146759855052,0,0,500,796,0,0,NA,1,2,152,248,0,0,0,0,26,High,NA,NA,NA,NA,High
Exp3,P103_Exp3,NA,18,F,3,17,65,12,4,16,1,1497.31153827452,200,0,979,744,157,0,NA,5,3,449,249,0,0,0,0,26,High,NA,NA,NA,NA,High
Exp3,P103_Exp3,NA,18,F,3,17,66,11,3,15,1,3087.47092015028,506,339,1468,417,0,0,NA,13,4,926,253,145,0,141,0,26,High,NA,NA,NA,NA,High
Exp3,P103_Exp3,NA,18,F,3,17,67,10,2,14,1,1043.31663779431,309,0,683,793,0,0,NA,3,2,313,251,0,0,0,0,26,High,NA,NA,NA,NA,High
Exp3,P103_Exp3,NA,18,F,3,17,68,9,1,13,1,315.334691072167,0,0,310,570,0,230,600,1,2,95,250,0,0,0,0,26,High,NA,NA,NA,NA,High
Exp3,P103_Exp3,NA,18,F,3,18,69,11,3,15,1,5097.21778245466,437,0,3798,779,0,0,NA,14,2,1529,249,51,0,32,0,26,High,NA,NA,NA,NA,High
Exp3,P103_Exp3,NA,18,F,3,18,70,10,2,14,1,2542.79005367243,156,0,2138,420,0,0,NA,7,3,763,251,0,19,0,0,26,High,NA,NA,NA,NA,High
Exp3,P103_Exp3,NA,18,F,3,18,71,12,4,16,1,848.734371891624,297,0,380,697,0,0,NA,4,3,255,254,0,0,0,0,26,High,NA,NA,NA,NA,High
Exp3,P103_Exp3,NA,18,F,3,18,72,9,1,13,1,752.171612391976,0,0,730,837,0,0,NA,3,1,225,253,0,0,0,0,26,High,NA,NA,NA,NA,High
Exp3,P105_Exp3,NA,20,F,1,1,1,4,4,8,1,6867.05071099732,900,0,4848,137,0,517,273,22,3,2060,254,65,0,57,0,15,Low,NA,NA,NA,NA,Low
Exp3,P105_Exp3,NA,20,F,1,1,2,2,2,6,4,10908.242302914,1623,0,7668,204,387,570,237,31,3,3272,247,39,0,34,0,15,Low,NA,NA,NA,NA,Low
Exp3,P105_Exp3,NA,20,F,1,1,3,1,1,5,1,5848.33126660942,1807,0,2814,193,200,536,227,21,3,1754,249,110,0,105,0,15,Low,NA,NA,NA,NA,Low
Exp3,P105_Exp3,NA,20,F,1,1,4,3,3,7,3,6285.21751309745,861,0,4662,247,0,499,283,19,4,1886,248,0,0,0,0,15,Low,NA,NA,NA,NA,Low
Exp3,P105_Exp3,NA,20,F,1,2,5,4,4,8,1,2739.63086344793,610,176,1677,103,0,400,3,10,4,822,252,0,0,0,0,15,Low,NA,NA,NA,NA,Low
Exp3,P105_Exp3,NA,20,F,1,2,6,2,2,6,1,3836.69432494207,924,0,2122,53,0,712,23,15,4,1151,252,65,0,63,0,15,Low,NA,NA,NA,NA,Low
Exp3,P105_Exp3,NA,20,F,1,2,7,1,1,5,4,10580.9273209588,614,0,7867,337,419,250,204,38,3,3175,244,28,40,28,40,15,Low,NA,NA,NA,NA,Low
Exp3,P105_Exp3,NA,20,F,1,2,8,3,3,7,3,4668.37146206854,520,0,3446,277,0,270,290,13,4,1401,248,0,0,0,0,15,Low,NA,NA,NA,NA,Low
Exp3,P105_Exp3,NA,20,F,1,3,9,2,2,6,1,19490.6707655009,2441,0,11872,200,0,327,190,50,4,5848,252,839,0,798,0,15,Low,NA,NA,NA,NA,Low
Exp3,P105_Exp3,NA,20,F,1,3,10,4,4,8,3,13020.3389144926,2802,0,7523,0,0,314,173,39,5,3907,248,86,0,86,0,15,Low,NA,NA,NA,NA,Low
Exp3,P105_Exp3,NA,20,F,1,3,11,1,1,5,1,2771.41202096573,729,156,1424,226,0,287,100,10,5,831,252,37,0,37,0,15,Low,NA,NA,NA,NA,Low
Exp3,P105_Exp3,NA,20,F,1,3,12,3,3,7,2,12572.5652406472,787,0,9568,234,213,310,210,38,4,3772,247,156,0,154,0,15,Low,NA,NA,NA,NA,Low
Exp3,P105_Exp3,NA,20,F,1,4,13,2,2,6,1,8125.3487973363,3027,110,3509,160,157,483,193,28,3,2438,251,111,0,106,0,15,Low,NA,NA,NA,NA,Low
Exp3,P105_Exp3,NA,20,F,1,4,14,4,4,8,1,1264.36966540859,420,280,720,236,0,227,270,5,3,379,249,0,0,0,0,15,Low,NA,NA,NA,NA,Low
Exp3,P105_Exp3,NA,20,F,1,4,15,3,3,7,2,9406.20294782821,1653,0,5923,536,0,170,283,27,4,2822,252,132,0,132,0,15,Low,NA,NA,NA,NA,Low
Exp3,P105_Exp3,NA,20,F,1,4,16,1,1,5,1,5109.79041370319,1674,140,2737,183,0,393,3,18,4,1533,251,0,0,0,0,15,Low,NA,NA,NA,NA,Low
Exp3,P105_Exp3,NA,20,F,1,5,17,2,2,6,1,3497.12811955578,1230,220,1654,224,0,287,250,15,3,1049,249,0,0,0,0,15,Low,NA,NA,NA,NA,Low
Exp3,P105_Exp3,NA,20,F,1,5,18,1,1,5,3,10462.4168229284,2756,344,6236,221,0,127,270,32,5,3139,245,87,0,63,0,15,Low,NA,NA,NA,NA,Low
Exp3,P105_Exp3,NA,20,F,1,5,19,4,4,8,1,2091.47787438633,376,0,1360,450,0,213,326,6,4,628,250,0,0,0,0,15,Low,NA,NA,NA,NA,Low
Exp3,P105_Exp3,NA,20,F,1,5,20,3,3,7,1,1592.52924705652,230,0,1028,473,0,274,236,6,3,478,251,34,0,34,0,15,Low,NA,NA,NA,NA,Low
Exp3,P105_Exp3,NA,20,F,1,6,21,1,1,5,1,1240.76343601701,173,430,613,343,0,0,NA,5,3,372,251,0,0,0,0,15,Low,NA,NA,NA,NA,Low
Exp3,P105_Exp3,NA,20,F,1,6,22,3,3,7,1,1470.91775808622,207,0,1119,794,0,0,NA,5,3,441,252,0,0,0,0,15,Low,NA,NA,NA,NA,Low
Exp3,P105_Exp3,NA,20,F,1,6,23,4,4,8,1,980.738116138127,180,453,655,273,0,0,NA,4,3,294,249,0,0,0,0,15,Low,NA,NA,NA,NA,Low
Exp3,P105_Exp3,NA,20,F,1,6,24,2,2,6,1,1613.63699479534,263,0,1183,0,0,574,3,4,3,484,250,0,61,0,56,15,Low,NA,NA,NA,NA,Low
Exp3,P105_Exp3,NA,20,F,2,7,25,5,1,9,1,5563.72682784331,3100,0,1877,373,0,280,190,17,3,1669,249,54,0,44,0,15,Low,NA,NA,NA,NA,Low
Exp3,P105_Exp3,NA,20,F,2,7,26,7,3,11,2,4876.17166322707,1855,233,2429,290,0,177,230,16,4,1463,246,0,0,0,0,15,Low,NA,NA,NA,NA,Low
Exp3,P105_Exp3,NA,20,F,2,7,27,8,4,12,1,3578.36514719202,1157,410,826,0,0,180,67,7,4,1073,250,387,0,387,0,15,Low,NA,NA,NA,NA,Low
Exp3,P105_Exp3,NA,20,F,2,7,28,6,2,10,1,4059.96899310867,1025,350,2144,160,0,153,203,13,4,1218,251,118,0,118,0,15,Low,NA,NA,NA,NA,Low
Exp3,P105_Exp3,NA,20,F,2,8,29,5,1,9,1,1770.98489138552,353,473,1173,267,0,0,NA,5,3,531,252,0,0,0,0,15,Low,NA,NA,NA,NA,Low
Exp3,P105_Exp3,NA,20,F,2,8,30,8,4,12,1,6684.04394816207,1080,296,4661,80,0,357,103,21,5,2005,254,50,0,45,0,15,Low,NA,NA,NA,NA,Low
Exp3,P105_Exp3,NA,20,F,2,8,31,7,3,11,1,1081.50688901151,461,130,270,196,0,250,237,5,4,325,254,0,30,0,30,15,Low,NA,NA,NA,NA,Low
Exp3,P105_Exp3,NA,20,F,2,8,32,6,2,10,1,2829.73920645054,711,180,1810,103,0,364,76,11,4,849,249,0,0,0,0,15,Low,NA,NA,NA,NA,Low
Exp3,P105_Exp3,NA,20,F,2,9,33,7,3,11,1,3645.56425176033,1357,374,1795,147,127,224,173,12,4,1094,250,0,0,0,0,15,Low,NA,NA,NA,NA,Low
Exp3,P105_Exp3,NA,20,F,2,9,34,8,4,12,1,5858.62161812929,2389,339,2636,0,0,408,3,24,4,1757,251,43,0,41,0,15,Low,NA,NA,NA,NA,Low
Exp3,P105_Exp3,NA,20,F,2,9,35,6,2,10,1,1928.55797431275,443,160,903,213,0,286,244,7,4,579,249,112,0,112,0,15,Low,NA,NA,NA,NA,Low
Exp3,P105_Exp3,NA,20,F,2,9,36,5,1,9,1,836.293457038664,244,277,506,137,0,266,70,3,3,251,253,0,0,0,0,15,Low,NA,NA,NA,NA,Low
Exp3,P105_Exp3,NA,20,F,2,10,37,7,3,11,1,1926.06070009424,936,324,737,206,0,213,247,6,3,577,251,0,0,0,0,15,Low,NA,NA,NA,NA,Low
Exp3,P105_Exp3,NA,20,F,2,10,38,6,2,10,2,3592.95486734572,933,354,1836,177,393,203,213,9,4,1078,250,34,0,34,0,15,Low,NA,NA,NA,NA,Low
Exp3,P105_Exp3,NA,20,F,2,10,39,5,1,9,1,4242.9712280682,1533,0,2267,180,0,380,356,12,2,1273,251,0,0,0,0,15,Low,NA,NA,NA,NA,Low
Exp3,P105_Exp3,NA,20,F,2,10,40,8,4,12,1,816.703453138871,0,163,697,90,0,357,66,2,6,245,253,0,0,0,0,15,Low,NA,NA,NA,NA,Low
Exp3,P105_Exp3,NA,20,F,2,11,41,7,3,11,1,1214.51262552728,500,267,565,317,0,0,NA,5,2,364,249,0,58,0,58,15,Low,NA,NA,NA,NA,Low
Exp3,P105_Exp3,NA,20,F,2,11,42,5,1,9,1,1789.99351608218,483,0,1103,180,0,340,50,3,3,537,251,0,52,0,44,15,Low,NA,NA,NA,NA,Low
Exp3,P105_Exp3,NA,20,F,2,11,43,6,2,10,1,671.999497707475,350,0,267,750,0,0,NA,3,3,202,252,0,0,0,0,15,Low,NA,NA,NA,NA,Low
Exp3,P105_Exp3,NA,20,F,2,11,44,8,4,12,1,229.834352206126,0,246,223,480,0,0,NA,1,2,69,245,0,0,0,0,15,Low,NA,NA,NA,NA,Low
Exp3,P105_Exp3,NA,20,F,2,12,45,7,3,11,1,1205.79978580099,284,737,784,0,0,0,NA,4,3,361,252,0,0,0,0,15,Low,NA,NA,NA,NA,Low
Exp3,P105_Exp3,NA,20,F,2,12,46,5,1,9,1,1326.28896538608,373,0,836,200,0,324,13,4,3,398,250,0,62,0,62,15,Low,NA,NA,NA,NA,Low
Exp3,P105_Exp3,NA,20,F,2,12,47,8,4,12,1,1066.11875349427,244,0,679,196,0,390,24,4,3,320,253,0,62,0,57,15,Low,NA,NA,NA,NA,Low
Exp3,P105_Exp3,NA,20,F,2,12,48,6,2,10,1,286.934483454388,0,133,280,623,0,0,NA,1,2,86,247,0,0,0,0,15,Low,NA,NA,NA,NA,Low
Exp3,P105_Exp3,NA,20,F,3,13,49,11,3,15,2,2958.2771373689,783,483,1676,274,0,0,NA,9,3,887,246,0,0,0,0,15,Low,NA,NA,NA,NA,Low
Exp3,P105_Exp3,NA,20,F,3,13,50,12,4,16,1,1536.2646597514,787,0,593,276,0,220,114,6,6,461,253,0,68,0,60,15,Low,NA,NA,NA,NA,Low
Exp3,P105_Exp3,NA,20,F,3,13,51,10,2,14,1,876.30417904802,217,0,573,407,0,310,96,3,4,263,251,0,0,0,0,15,Low,NA,NA,NA,NA,Low
Exp3,P105_Exp3,NA,20,F,3,13,52,9,1,13,1,257.199623763881,0,227,250,500,0,0,NA,1,3,77,246,0,0,0,0,15,Low,NA,NA,NA,NA,Low
Exp3,P105_Exp3,NA,20,F,3,14,53,10,2,14,4,5194.79040766601,1126,137,3405,630,0,0,NA,18,2,1558,246,0,0,0,0,15,Low,NA,NA,NA,NA,Low
Exp3,P105_Exp3,NA,20,F,3,14,54,9,1,13,1,5325.35561933491,1950,0,2669,210,0,584,240,14,3,1598,251,59,0,59,0,15,Low,NA,NA,NA,NA,Low
Exp3,P105_Exp3,NA,20,F,3,14,55,11,3,15,1,5198.86006208617,421,0,2925,206,0,533,164,14,4,1560,254,417,0,412,0,15,Low,NA,NA,NA,NA,Low
Exp3,P105_Exp3,NA,20,F,3,14,56,12,4,16,1,550.832646102208,0,203,506,258,0,0,NA,2,4,166,253,0,43,0,41,15,Low,NA,NA,NA,NA,Low
Exp3,P105_Exp3,NA,20,F,3,15,57,10,2,14,1,1315.27173893301,559,824,537,0,0,0,NA,5,2,394,254,0,0,0,0,15,Low,NA,NA,NA,NA,Low
Exp3,P105_Exp3,NA,20,F,3,15,58,9,1,13,1,647.049998610783,247,0,321,200,0,387,230,3,3,194,249,0,0,0,0,15,Low,NA,NA,NA,NA,Low
Exp3,P105_Exp3,NA,20,F,3,15,59,12,4,16,2,1807.29935776617,233,117,1429,284,0,60,594,5,4,542,246,0,62,0,54,15,Low,NA,NA,NA,NA,Low
Exp3,P105_Exp3,NA,20,F,3,15,60,11,3,15,1,863.395206247333,417,0,370,309,0,143,296,3,3,259,249,0,57,0,57,15,Low,NA,NA,NA,NA,Low
Exp3,P105_Exp3,NA,20,F,3,16,61,10,2,14,1,1217.47023374701,270,0,513,779,0,0,NA,5,2,366,253,0,0,0,0,15,Low,NA,NA,NA,NA,Low
Exp3,P105_Exp3,NA,20,F,3,16,62,9,1,13,1,657.273337575134,316,0,254,763,0,0,NA,3,3,197,251,0,0,0,0,15,Low,NA,NA,NA,NA,Low
Exp3,P105_Exp3,NA,20,F,3,16,63,12,4,16,1,1575.81655705144,750,0,487,374,0,0,NA,6,2,473,250,0,108,0,108,15,Low,NA,NA,NA,NA,Low
Exp3,P105_Exp3,NA,20,F,3,16,64,11,3,15,1,521.606719607917,0,0,444,66,0,677,100,1,3,156,247,6,0,0,0,15,Low,NA,NA,NA,NA,Low
Exp3,P105_Exp3,NA,20,F,3,17,65,12,4,16,2,5126.56317352139,3051,0,1372,417,0,320,243,11,3,1538,246,68,0,63,0,15,Low,NA,NA,NA,NA,Low
Exp3,P105_Exp3,NA,20,F,3,17,66,10,2,14,1,1018.55885573968,440,340,517,410,0,0,NA,3,2,305,253,0,0,0,0,15,Low,NA,NA,NA,NA,Low
Exp3,P105_Exp3,NA,20,F,3,17,67,9,1,13,1,760.449129017616,240,0,417,260,0,254,296,3,3,228,250,0,0,0,0,15,Low,NA,NA,NA,NA,Low
Exp3,P105_Exp3,NA,20,F,3,17,68,11,3,15,1,507.873371625465,0,60,500,283,0,397,317,1,3,152,246,0,0,0,0,15,Low,NA,NA,NA,NA,Low
Exp3,P105_Exp3,NA,20,F,3,18,69,12,4,16,1,827.684456588031,246,580,354,183,0,0,NA,3,2,249,250,0,0,0,0,15,Low,NA,NA,NA,NA,Low
Exp3,P105_Exp3,NA,20,F,3,18,70,10,2,14,1,698.453157016047,340,163,317,404,0,0,NA,2,3,210,254,0,53,0,51,15,Low,NA,NA,NA,NA,Low
Exp3,P105_Exp3,NA,20,F,3,18,71,11,3,15,1,1095.01565437495,553,0,456,507,0,216,260,4,3,328,250,0,0,0,0,15,Low,NA,NA,NA,NA,Low
Exp3,P105_Exp3,NA,20,F,3,18,72,9,1,13,1,293.165745596525,0,373,240,337,0,0,NA,1,4,88,245,0,0,0,0,15,Low,NA,NA,NA,NA,Low
Exp3,P106_Exp3,NA,18,F,1,1,1,3,3,7,3,5319.62041268844,407,0,3827,170,0,293,203,20,4,1596,248,73,26,26,26,14,Low,NA,NA,NA,NA,Low
Exp3,P106_Exp3,NA,18,F,1,1,2,2,2,6,1,1976.49463711241,370,0,927,390,0,236,190,11,4,593,251,41,26,0,26,14,Low,NA,NA,NA,NA,Low
Exp3,P106_Exp3,NA,18,F,1,1,3,1,1,5,2,2683.14487085308,289,0,1989,271,0,147,223,15,10,805,254,23,20,0,0,14,Low,NA,NA,NA,NA,Low
Exp3,P106_Exp3,NA,18,F,1,1,4,4,4,8,1,1311.09213456284,314,0,754,389,0,257,240,6,6,393,250,25,16,0,0,14,Low,NA,NA,NA,NA,Low
Exp3,P106_Exp3,NA,18,F,1,2,5,2,2,6,1,3728.12110136829,643,0,2149,147,0,207,193,18,4,1119,250,83,18,31,0,14,Low,NA,NA,NA,NA,Low
Exp3,P106_Exp3,NA,18,F,1,2,6,1,1,5,1,1788.56251439447,260,193,1004,466,0,0,NA,7,7,537,252,10,15,0,0,14,Low,NA,NA,NA,NA,Low
Exp3,P106_Exp3,NA,18,F,1,2,7,4,4,8,1,1132.60351098324,396,264,570,170,0,0,NA,4,8,340,253,0,63,0,37,14,Low,NA,NA,NA,NA,Low
Exp3,P106_Exp3,NA,18,F,1,2,8,3,3,7,1,767.692637874006,241,0,380,166,0,190,207,5,7,230,253,15,17,0,0,14,Low,NA,NA,NA,NA,Low
Exp3,P106_Exp3,NA,18,F,1,3,9,4,4,8,1,2769.19164432184,1063,0,1087,651,0,0,NA,17,5,831,253,35,23,0,0,14,Low,NA,NA,NA,NA,Low
Exp3,P106_Exp3,NA,18,F,1,3,10,2,2,6,2,2034.80073567835,273,136,1587,373,0,117,213,7,6,610,249,0,21,0,0,14,Low,NA,NA,NA,NA,Low
Exp3,P106_Exp3,NA,18,F,1,3,11,1,1,5,1,3289.52406998042,320,0,2192,607,147,0,NA,18,6,987,251,32,21,0,0,14,Low,NA,NA,NA,NA,Low
Exp3,P106_Exp3,NA,18,F,1,3,12,3,3,7,1,279.208816789833,34,133,196,163,0,136,430,2,6,84,244,0,3,0,0,14,Low,NA,NA,NA,NA,Low
Exp3,P106_Exp3,NA,18,F,1,4,13,2,2,6,1,2059.46008600995,340,236,1425,344,0,0,NA,6,5,618,251,30,29,26,29,14,Low,NA,NA,NA,NA,Low
Exp3,P106_Exp3,NA,18,F,1,4,14,1,1,5,1,1938.85255071064,257,0,1387,659,0,0,NA,7,4,581,252,31,16,0,0,14,Low,NA,NA,NA,NA,Low
Exp3,P106_Exp3,NA,18,F,1,4,15,4,4,8,1,2476.9149686631,1163,621,751,143,0,0,NA,15,4,743,250,52,0,49,0,14,Low,NA,NA,NA,NA,Low
Exp3,P106_Exp3,NA,18,F,1,4,16,3,3,7,1,458.477732690881,186,0,150,413,0,190,387,2,7,138,245,14,6,0,0,14,Low,NA,NA,NA,NA,Low
Exp3,P106_Exp3,NA,18,F,1,5,17,4,4,8,1,1101.84248599626,393,777,548,0,0,0,NA,8,3,331,253,2,0,0,0,14,Low,NA,NA,NA,NA,Low
Exp3,P106_Exp3,NA,18,F,1,5,18,1,1,5,1,2025.33912530589,494,254,1026,347,0,0,NA,12,8,607,251,21,29,0,29,14,Low,NA,NA,NA,NA,Low
Exp3,P106_Exp3,NA,18,F,1,5,19,2,2,6,1,591.893532508493,210,36,330,460,0,0,NA,3,8,177,251,0,21,0,0,14,Low,NA,NA,NA,NA,Low
Exp3,P106_Exp3,NA,18,F,1,5,20,3,3,7,1,393.082897230215,237,0,100,634,0,0,NA,2,5,118,245,0,22,0,0,14,Low,NA,NA,NA,NA,Low
Exp3,P106_Exp3,NA,18,F,1,6,21,4,4,8,1,885.821348979334,494,670,270,0,0,0,NA,5,3,266,252,0,33,0,31,14,Low,NA,NA,NA,NA,Low
Exp3,P106_Exp3,NA,18,F,1,6,22,3,3,7,1,1138.97836341448,244,0,734,543,0,0,NA,7,6,342,252,0,57,0,57,14,Low,NA,NA,NA,NA,Low
Exp3,P106_Exp3,NA,18,F,1,6,23,1,1,5,1,1310.07398137126,270,0,807,693,0,0,NA,6,2,393,251,0,19,0,0,14,Low,NA,NA,NA,NA,Low
Exp3,P106_Exp3,NA,18,F,1,6,24,2,2,6,1,217.448000383683,0,0,50,240,0,113,467,2,12,65,248,0,14,0,0,14,Low,NA,NA,NA,NA,Low
Exp3,P106_Exp3,NA,18,F,2,7,25,8,4,12,1,7797.69268918881,1251,0,4424,180,0,384,240,34,5,2340,249,126,0,31,0,14,Low,NA,NA,NA,NA,Low
Exp3,P106_Exp3,NA,18,F,2,7,26,7,3,11,1,1069.15442573654,376,237,340,0,0,357,243,5,6,321,252,22,29,0,29,14,Low,NA,NA,NA,NA,Low
Exp3,P106_Exp3,NA,18,F,2,7,27,5,1,9,1,1169.84473541152,366,0,580,384,0,233,250,7,7,351,253,0,11,0,0,14,Low,NA,NA,NA,NA,Low
Exp3,P106_Exp3,NA,18,F,2,7,28,6,2,10,1,636.60201861785,314,0,253,134,0,63,777,3,11,191,253,0,40,0,40,14,Low,NA,NA,NA,NA,Low
Exp3,P106_Exp3,NA,18,F,2,8,29,8,4,12,1,865.228574335106,313,634,450,0,0,0,NA,3,4,259,254,0,34,0,32,14,Low,NA,NA,NA,NA,Low
Exp3,P106_Exp3,NA,18,F,2,8,30,5,1,9,1,1112.08046458933,313,250,607,349,0,0,NA,7,4,333,250,0,34,0,32,14,Low,NA,NA,NA,NA,Low
Exp3,P106_Exp3,NA,18,F,2,8,31,7,3,11,1,579.417307276344,266,253,246,287,0,0,NA,3,6,174,249,0,56,0,53,14,Low,NA,NA,NA,NA,Low
Exp3,P106_Exp3,NA,18,F,2,8,32,6,2,10,1,405.288359517726,183,0,177,267,0,280,483,2,7,122,247,0,39,0,39,14,Low,NA,NA,NA,NA,Low
Exp3,P106_Exp3,NA,18,F,2,9,33,5,1,9,1,1537.94197824755,331,0,909,0,0,727,20,6,7,462,252,22,0,0,0,14,Low,NA,NA,NA,NA,Low
Exp3,P106_Exp3,NA,18,F,2,9,34,6,2,10,1,1117.99529168275,227,0,716,20,0,634,63,5,4,335,253,0,14,0,0,14,Low,NA,NA,NA,NA,Low
Exp3,P106_Exp3,NA,18,F,2,9,35,8,4,12,1,1305.76773369012,310,0,704,184,150,428,180,5,5,392,251,0,19,0,0,14,Low,NA,NA,NA,NA,Low
Exp3,P106_Exp3,NA,18,F,2,9,36,7,3,11,1,261.116901674995,40,143,150,0,0,503,194,2,4,78,246,0,0,0,0,14,Low,NA,NA,NA,NA,Low
Exp3,P106_Exp3,NA,18,F,2,10,37,8,4,12,1,1044.27109981361,193,306,593,190,0,123,237,5,4,313,250,0,22,0,0,14,Low,NA,NA,NA,NA,Low
Exp3,P106_Exp3,NA,18,F,2,10,38,6,2,10,1,835.343227500289,281,0,453,247,0,464,376,4,2,251,253,0,22,0,0,14,Low,NA,NA,NA,NA,Low
Exp3,P106_Exp3,NA,18,F,2,10,39,5,1,9,1,851.551876157828,184,0,260,390,37,116,373,7,10,256,253,0,18,0,0,14,Low,NA,NA,NA,NA,Low
Exp3,P106_Exp3,NA,18,F,2,10,40,7,3,11,1,559.976407099839,277,0,190,220,0,411,293,3,5,168,250,0,0,0,0,14,Low,NA,NA,NA,NA,Low
Exp3,P106_Exp3,NA,18,F,2,11,41,6,2,10,1,1054.35996258211,386,67,534,374,0,109,404,6,9,316,252,0,0,0,0,14,Low,NA,NA,NA,NA,Low
Exp3,P106_Exp3,NA,18,F,2,11,42,5,1,9,1,1005.81310233019,276,177,401,483,0,0,NA,5,4,302,251,16,18,0,0,14,Low,NA,NA,NA,NA,Low
Exp3,P106_Exp3,NA,18,F,2,11,43,7,3,11,1,1222.26649412687,443,174,500,459,0,0,NA,8,4,367,251,0,0,0,0,14,Low,NA,NA,NA,NA,Low
Exp3,P106_Exp3,NA,18,F,2,11,44,8,4,12,1,149.978523095342,143,14,0,256,0,346,470,1,6,45,249,0,6,0,0,14,Low,NA,NA,NA,NA,Low
Exp3,P106_Exp3,NA,18,F,2,12,45,7,3,11,1,704.086890455528,163,774,347,0,0,0,NA,4,3,212,252,0,0,0,0,14,Low,NA,NA,NA,NA,Low
Exp3,P106_Exp3,NA,18,F,2,12,46,5,1,9,1,693.599580543832,206,220,376,193,0,0,NA,3,8,208,250,0,24,0,0,14,Low,NA,NA,NA,NA,Low
Exp3,P106_Exp3,NA,18,F,2,12,47,6,2,10,1,594.781670586599,220,0,317,706,0,0,NA,3,4,178,250,0,23,0,0,14,Low,NA,NA,NA,NA,Low
Exp3,P106_Exp3,NA,18,F,2,12,48,8,4,12,1,137.879011525001,0,260,100,316,0,0,NA,2,7,41,248,0,17,0,0,14,Low,NA,NA,NA,NA,Low
Exp3,P106_Exp3,NA,18,F,3,13,49,11,3,15,1,1016.55970473894,349,0,536,240,0,310,226,5,4,305,254,0,31,0,31,14,Low,NA,NA,NA,NA,Low
Exp3,P106_Exp3,NA,18,F,3,13,50,9,1,13,1,1472.40798814073,487,0,714,340,0,265,160,7,8,442,251,27,14,27,0,14,Low,NA,NA,NA,NA,Low
Exp3,P106_Exp3,NA,18,F,3,13,51,10,2,14,1,854.107673095768,364,0,403,263,0,314,190,3,6,256,252,0,20,0,0,14,Low,NA,NA,NA,NA,Low
Exp3,P106_Exp3,NA,18,F,3,13,52,12,4,16,1,436.564045397517,204,229,140,396,0,0,NA,2,3,131,247,0,29,0,29,14,Low,NA,NA,NA,NA,Low
Exp3,P106_Exp3,NA,18,F,3,14,53,11,3,15,1,708.295337474283,293,627,254,0,0,0,NA,4,6,212,251,12,44,0,44,14,Low,NA,NA,NA,NA,Low
Exp3,P106_Exp3,NA,18,F,3,14,54,12,4,16,1,943.847628982894,218,333,503,252,0,0,NA,5,6,283,250,0,26,0,26,14,Low,NA,NA,NA,NA,Low
Exp3,P106_Exp3,NA,18,F,3,14,55,9,1,13,1,811.947739431162,317,0,280,281,0,307,243,5,10,244,250,0,18,0,0,14,Low,NA,NA,NA,NA,Low
Exp3,P106_Exp3,NA,18,F,3,14,56,10,2,14,1,451.388392087665,224,0,40,260,0,334,366,3,7,136,249,0,0,0,0,14,Low,NA,NA,NA,NA,Low
Exp3,P106_Exp3,NA,18,F,3,15,57,12,4,16,2,3391.95668034336,337,210,1725,233,70,100,277,20,4,1017,246,86,50,30,46,14,Low,NA,NA,NA,NA,Low
Exp3,P106_Exp3,NA,18,F,3,15,58,10,2,14,1,2089.42814081229,470,93,1036,266,0,149,227,10,11,627,251,30,27,0,0,14,Low,NA,NA,NA,NA,Low
Exp3,P106_Exp3,NA,18,F,3,15,59,11,3,15,1,991.416180757369,284,0,470,476,0,130,700,5,3,298,250,21,33,0,31,14,Low,NA,NA,NA,NA,Low
Exp3,P106_Exp3,NA,18,F,3,15,60,9,1,13,1,310.483597108032,0,200,0,0,33,150,277,2,5,93,246,0,42,0,40,14,Low,NA,NA,NA,NA,Low
Exp3,P106_Exp3,NA,18,F,3,16,61,10,2,14,4,4995.63519266258,300,0,3684,167,0,157,336,15,2,1499,243,91,108,29,83,14,Low,NA,NA,NA,NA,Low
Exp3,P106_Exp3,NA,18,F,3,16,62,12,4,16,1,941.251383622784,127,337,376,273,0,0,NA,6,3,282,251,63,42,40,39,14,Low,NA,NA,NA,NA,Low
Exp3,P106_Exp3,NA,18,F,3,16,63,9,1,13,1,960.377148331645,273,0,508,696,0,0,NA,4,2,288,250,23,23,0,0,14,Low,NA,NA,NA,NA,Low
Exp3,P106_Exp3,NA,18,F,3,16,64,11,3,15,1,250.795007698798,156,40,43,193,0,334,374,2,4,75,250,0,17,0,0,14,Low,NA,NA,NA,NA,Low
Exp3,P106_Exp3,NA,18,F,3,17,65,9,1,13,1,1763.95538478664,287,213,1156,249,0,139,204,6,5,530,249,12,16,0,0,14,Low,NA,NA,NA,NA,Low
Exp3,P106_Exp3,NA,18,F,3,17,66,10,2,14,1,663.293449378216,263,270,280,431,0,0,NA,2,4,199,249,18,1,0,0,14,Low,NA,NA,NA,NA,Low
Exp3,P106_Exp3,NA,18,F,3,17,67,12,4,16,1,876.750639401962,243,0,530,114,0,303,483,3,8,263,250,0,41,0,39,14,Low,NA,NA,NA,NA,Low
Exp3,P106_Exp3,NA,18,F,3,17,68,11,3,15,1,467.517351316928,0,0,0,0,200,266,183,2,8,140,249,0,19,0,0,14,Low,NA,NA,NA,NA,Low
Exp3,P106_Exp3,NA,18,F,3,18,69,12,4,16,2,2531.31870006018,223,234,1730,350,0,0,NA,10,6,760,250,35,40,0,32,14,Low,NA,NA,NA,NA,Low
Exp3,P106_Exp3,NA,18,F,3,18,70,9,1,13,3,3239.01395198891,176,0,2438,310,0,0,NA,10,5,972,252,22,51,0,49,14,Low,NA,NA,NA,NA,Low
Exp3,P106_Exp3,NA,18,F,3,18,71,11,3,15,1,899.835519811859,274,0,453,670,0,0,NA,5,4,270,253,18,29,0,29,14,Low,NA,NA,NA,NA,Low
Exp3,P106_Exp3,NA,18,F,3,18,72,10,2,14,1,200.250176508689,0,37,177,50,0,287,403,2,5,60,249,0,16,0,0,14,Low,NA,NA,NA,NA,Low
Exp3,P107_Exp3,NA,20,M,1,1,1,4,4,8,3,4606.67734842718,295,0,3365,320,0,434,233,23,3,1383,246,98,0,98,0,21,Low,NA,NA,NA,NA,Low
Exp3,P107_Exp3,NA,20,M,1,1,2,2,2,6,1,3262.15915663124,90,0,2187,319,0,374,223,21,10,979,250,77,0,77,0,21,Low,NA,NA,NA,NA,Low
Exp3,P107_Exp3,NA,20,M,1,1,3,1,1,5,2,2162.40432599261,117,0,1667,430,0,134,263,13,3,649,245,29,53,29,48,21,Low,NA,NA,NA,NA,Low
Exp3,P107_Exp3,NA,20,M,1,1,4,3,3,7,1,1101.4422188764,127,137,493,120,0,153,450,12,14,330,253,0,33,0,33,21,Low,NA,NA,NA,NA,Low
Exp3,P107_Exp3,NA,20,M,1,2,5,2,2,6,2,3740.43954199624,20,107,2061,166,0,243,237,19,8,1122,252,273,70,273,43,21,Low,NA,NA,NA,NA,Low
Exp3,P107_Exp3,NA,20,M,1,2,6,4,4,8,1,1487.30293176777,121,0,1116,603,0,131,250,8,6,447,252,0,0,0,0,21,Low,NA,NA,NA,NA,Low
Exp3,P107_Exp3,NA,20,M,1,2,7,3,3,7,1,901.334878044509,144,0,314,553,0,164,283,10,4,270,253,48,0,43,0,21,Low,NA,NA,NA,NA,Low
Exp3,P107_Exp3,NA,20,M,1,2,8,1,1,5,1,783.899599493452,99,0,227,143,0,578,183,7,8,235,253,35,0,35,0,21,Low,NA,NA,NA,NA,Low
Exp3,P107_Exp3,NA,20,M,1,3,9,3,3,7,1,1600.17230075391,85,524,878,0,0,77,766,12,18,480,254,33,0,33,0,21,Low,NA,NA,NA,NA,Low
Exp3,P107_Exp3,NA,20,M,1,3,10,4,4,8,1,1649.64899909683,122,0,476,0,290,552,13,20,7,495,254,88,34,83,34,21,Low,NA,NA,NA,NA,Low
Exp3,P107_Exp3,NA,20,M,1,3,11,2,2,6,1,1183.0843404332,47,0,344,220,0,550,13,13,3,355,253,46,0,41,0,21,Low,NA,NA,NA,NA,Low
Exp3,P107_Exp3,NA,20,M,1,3,12,1,1,5,1,993.247730328221,83,133,507,157,174,376,437,7,6,298,250,0,0,0,0,21,Low,NA,NA,NA,NA,Low
Exp3,P107_Exp3,NA,20,M,1,4,13,4,4,8,1,1535.65732073002,7,430,655,0,163,0,NA,11,11,461,253,2,0,0,0,21,Low,NA,NA,NA,NA,Low
Exp3,P107_Exp3,NA,20,M,1,4,14,3,3,7,1,3570.80087852773,300,424,456,0,0,173,260,24,14,1072,252,522,0,515,0,21,Low,NA,NA,NA,NA,Low
Exp3,P107_Exp3,NA,20,M,1,4,15,1,1,5,1,1133.35709964849,184,0,525,501,0,0,NA,16,4,340,253,0,0,0,0,21,Low,NA,NA,NA,NA,Low
Exp3,P107_Exp3,NA,20,M,1,4,16,2,2,6,1,287.470282044524,0,150,193,0,0,390,286,1,9,86,245,0,29,0,29,21,Low,NA,NA,NA,NA,Low
Exp3,P107_Exp3,NA,20,M,1,5,17,3,3,7,1,1255.79054893569,186,0,582,823,0,0,NA,15,2,377,252,0,0,0,0,21,Low,NA,NA,NA,NA,Low
Exp3,P107_Exp3,NA,20,M,1,5,18,2,2,6,1,1470.24340650933,43,339,424,303,0,0,NA,18,12,442,252,100,0,86,0,21,Low,NA,NA,NA,NA,Low
Exp3,P107_Exp3,NA,20,M,1,5,19,1,1,5,1,1355.08776229835,105,NA,0,NA,0,NA,NA,5,NA,406,252,263,252,263,252,21,Low,NA,NA,NA,NA,Low
Exp3,P107_Exp3,NA,20,M,1,5,20,4,4,8,1,493.499178341153,NA,NA,NA,NA,NA,NA,NA,NA,NA,148,245,148,245,148,245,21,Low,NA,NA,NA,NA,Low
Exp3,P107_Exp3,NA,20,M,1,6,21,2,2,6,1,1899.30699357501,217,NA,661,NA,146,NA,NA,14,NA,570,253,155,253,154,253,21,Low,NA,NA,NA,NA,Low
Exp3,P107_Exp3,NA,20,M,1,6,22,3,3,7,1,703.680136391995,64,270,314,263,0,0,NA,7,11,212,252,31,0,26,0,21,Low,NA,NA,NA,NA,Low
Exp3,P107_Exp3,NA,20,M,1,6,23,1,1,5,1,869.230430220341,112,0,347,713,0,0,NA,9,3,260,253,35,0,35,0,21,Low,NA,NA,NA,NA,Low
Exp3,P107_Exp3,NA,20,M,1,6,24,4,4,8,1,281.021983741084,46,0,0,739,0,0,NA,5,3,84,244,0,0,0,0,21,Low,NA,NA,NA,NA,Low
Exp3,P107_Exp3,NA,20,M,2,7,25,5,1,9,1,5758.71646202722,401,0,681,243,0,143,420,31,5,1728,251,1022,0,1022,0,21,Low,NA,NA,NA,NA,Low
Exp3,P107_Exp3,NA,20,M,2,7,26,8,4,12,1,1384.74383695757,107,0,772,433,0,0,NA,11,6,415,253,36,0,36,0,21,Low,NA,NA,NA,NA,Low
Exp3,P107_Exp3,NA,20,M,2,7,27,7,3,11,1,3040.89365771506,73,0,687,290,147,387,240,14,5,912,252,488,0,483,0,21,Low,NA,NA,NA,NA,Low
Exp3,P107_Exp3,NA,20,M,2,7,28,6,2,10,1,743.821864929487,88,0,253,163,0,603,220,8,6,224,250,28,5,28,0,21,Low,NA,NA,NA,NA,Low
Exp3,P107_Exp3,NA,20,M,2,8,29,8,4,12,1,2195.9136226269,63,43,317,0,0,236,540,5,12,658,250,488,81,488,77,21,Low,NA,NA,NA,NA,Low
Exp3,P107_Exp3,NA,20,M,2,8,30,7,3,11,2,3780.05905557075,80,NA,0,NA,100,NA,NA,11,NA,1134,250,939,250,939,250,21,Low,NA,NA,NA,NA,Low
Exp3,P107_Exp3,NA,20,M,2,8,31,6,2,10,1,1332.62376494713,NA,NA,NA,NA,NA,NA,NA,NA,NA,400,252,400,252,400,252,21,Low,NA,NA,NA,NA,Low
Exp3,P107_Exp3,NA,20,M,2,8,32,5,1,9,1,727.642558647858,65,173,200,183,0,229,244,7,11,219,250,99,0,99,0,21,Low,NA,NA,NA,NA,Low
Exp3,P107_Exp3,NA,20,M,2,9,33,7,3,11,1,1491.47099201582,83,114,895,334,0,0,NA,12,6,447,251,71,0,67,0,21,Low,NA,NA,NA,NA,Low
Exp3,P107_Exp3,NA,20,M,2,9,34,8,4,12,1,921.559086360503,26,466,346,0,0,0,NA,5,19,276,252,52,0,52,0,21,Low,NA,NA,NA,NA,Low
Exp3,P107_Exp3,NA,20,M,2,9,35,5,1,9,1,1061.41368722274,146,247,313,0,0,0,NA,8,15,319,250,74,0,70,0,21,Low,NA,NA,NA,NA,Low
Exp3,P107_Exp3,NA,20,M,2,9,36,6,2,10,1,546.879207149686,81,260,144,213,0,0,NA,7,3,164,250,26,43,26,43,21,Low,NA,NA,NA,NA,Low
Exp3,P107_Exp3,NA,20,M,2,10,37,8,4,12,1,1124.06891788669,90,177,577,226,0,0,NA,10,8,338,251,29,60,29,57,21,Low,NA,NA,NA,NA,Low
Exp3,P107_Exp3,NA,20,M,2,10,38,7,3,11,1,671.861548436937,185,180,263,204,0,0,NA,7,7,201,252,0,0,0,0,21,Low,NA,NA,NA,NA,Low
Exp3,P107_Exp3,NA,20,M,2,10,39,6,2,10,1,581.739621808083,96,0,200,465,0,0,NA,8,8,174,254,0,33,0,33,21,Low,NA,NA,NA,NA,Low
Exp3,P107_Exp3,NA,20,M,2,10,40,5,1,9,1,222.965565206323,0,629,187,0,0,0,NA,1,7,67,246,0,0,0,0,21,Low,NA,NA,NA,NA,Low
Exp3,P107_Exp3,NA,20,M,2,11,41,8,4,12,1,5683.97421888221,182,0,556,203,0,545,243,13,5,1706,253,1326,0,1294,0,21,Low,NA,NA,NA,NA,Low
Exp3,P107_Exp3,NA,20,M,2,11,42,6,2,10,1,1247.56007887117,47,0,271,0,44,656,137,13,4,374,249,89,0,84,0,21,Low,NA,NA,NA,NA,Low
Exp3,P107_Exp3,NA,20,M,2,11,43,7,3,11,1,1991.76922807601,228,0,149,210,237,473,254,23,12,598,250,104,0,99,0,21,Low,NA,NA,NA,NA,Low
Exp3,P107_Exp3,NA,20,M,2,11,44,5,1,9,1,1095.78026160307,171,0,416,123,183,630,160,14,6,329,250,0,0,0,0,21,Low,NA,NA,NA,NA,Low
Exp3,P107_Exp3,NA,20,M,2,12,45,7,3,11,2,5118.45344679932,191,0,1489,107,74,451,140,38,14,1536,253,415,0,395,0,21,Low,NA,NA,NA,NA,Low
Exp3,P107_Exp3,NA,20,M,2,12,46,6,2,10,1,1449.68021125169,20,0,292,137,438,433,173,16,2,435,253,36,61,35,61,21,Low,NA,NA,NA,NA,Low
Exp3,P107_Exp3,NA,20,M,2,12,47,5,1,9,1,1191.17082406046,17,210,347,0,363,510,4,7,4,358,251,0,0,0,0,21,Low,NA,NA,NA,NA,Low
Exp3,P107_Exp3,NA,20,M,2,12,48,8,4,12,1,848.325833159834,109,0,392,90,0,564,147,10,8,255,254,40,0,36,0,21,Low,NA,NA,NA,NA,Low
Exp3,P107_Exp3,NA,20,M,3,13,49,9,1,13,1,1233.32323114118,53,58,479,0,0,456,347,15,9,370,254,61,0,42,0,21,Low,NA,NA,NA,NA,Low
Exp3,P107_Exp3,NA,20,M,3,13,50,10,2,14,1,1048.48177318854,64,0,350,126,114,622,167,12,10,315,254,25,0,0,0,21,Low,NA,NA,NA,NA,Low
Exp3,P107_Exp3,NA,20,M,3,13,51,11,3,15,1,861.00448803154,146,0,331,424,67,232,246,8,9,259,250,34,0,34,0,21,Low,NA,NA,NA,NA,Low
Exp3,P107_Exp3,NA,20,M,3,13,52,12,4,16,1,564.486605337152,26,66,86,127,44,180,350,6,9,169,249,0,36,0,36,21,Low,NA,NA,NA,NA,Low
Exp3,P107_Exp3,NA,20,M,3,14,53,9,1,13,1,1301.27064258522,73,43,893,170,0,174,297,11,13,390,253,0,27,0,27,21,Low,NA,NA,NA,NA,Low
Exp3,P107_Exp3,NA,20,M,3,14,54,12,4,16,1,969.741717912257,122,411,413,150,0,0,NA,15,12,291,252,32,0,32,0,21,Low,NA,NA,NA,NA,Low
Exp3,P107_Exp3,NA,20,M,3,14,55,11,3,15,1,819.549373763948,178,0,213,407,0,286,220,9,5,246,253,65,0,58,0,21,Low,NA,NA,NA,NA,Low
Exp3,P107_Exp3,NA,20,M,3,14,56,10,2,14,1,972.420107147627,122,0,253,189,0,243,284,9,8,292,252,71,44,71,39,21,Low,NA,NA,NA,NA,Low
Exp3,P107_Exp3,NA,20,M,3,15,57,9,1,13,1,1074.55599653622,87,0,509,410,24,173,276,12,5,322,251,32,35,32,35,21,Low,NA,NA,NA,NA,Low
Exp3,P107_Exp3,NA,20,M,3,15,58,12,4,16,1,1183.4435518831,83,302,597,154,0,118,216,10,18,355,253,44,0,44,0,21,Low,NA,NA,NA,NA,Low
Exp3,P107_Exp3,NA,20,M,3,15,59,11,3,15,1,681.535807043474,16,10,315,360,0,130,230,6,7,204,254,23,52,0,52,21,Low,NA,NA,NA,NA,Low
Exp3,P107_Exp3,NA,20,M,3,15,60,10,2,14,1,813.711433065691,26,0,506,213,0,110,267,4,3,244,249,0,47,0,45,21,Low,NA,NA,NA,NA,Low
Exp3,P107_Exp3,NA,20,M,3,16,61,9,1,13,1,928.167067735558,98,310,406,47,0,170,403,13,11,279,250,0,0,0,0,21,Low,NA,NA,NA,NA,Low
Exp3,P107_Exp3,NA,20,M,3,16,62,12,4,16,1,868.05137146257,169,235,363,163,0,0,NA,9,17,261,253,7,30,0,30,21,Low,NA,NA,NA,NA,Low
Exp3,P107_Exp3,NA,20,M,3,16,63,10,2,14,1,1274.84264123632,147,0,440,559,0,0,NA,10,3,382,251,122,63,117,63,21,Low,NA,NA,NA,NA,Low
Exp3,P107_Exp3,NA,20,M,3,16,64,11,3,15,1,479.679498866972,144,90,253,213,0,320,310,6,3,144,244,0,0,0,0,21,Low,NA,NA,NA,NA,Low
Exp3,P107_Exp3,NA,20,M,3,17,65,12,4,16,1,1071.81240589489,49,0,493,237,163,133,293,8,4,321,252,27,99,27,99,21,Low,NA,NA,NA,NA,Low
Exp3,P107_Exp3,NA,20,M,3,17,66,10,2,14,1,1069.71237728067,138,30,321,576,0,0,NA,13,4,321,253,84,45,72,45,21,Low,NA,NA,NA,NA,Low
Exp3,P107_Exp3,NA,20,M,3,17,67,11,3,15,1,571.463457630671,105,0,230,533,0,183,270,6,5,172,252,0,0,0,0,21,Low,NA,NA,NA,NA,Low
Exp3,P107_Exp3,NA,20,M,3,17,68,9,1,13,1,629.371663711936,67,0,223,186,0,211,234,8,5,189,250,27,33,27,33,21,Low,NA,NA,NA,NA,Low
Exp3,P107_Exp3,NA,20,M,3,18,69,10,2,14,1,1450.91511380633,81,145,718,143,0,160,183,12,9,435,253,47,0,42,0,21,Low,NA,NA,NA,NA,Low
Exp3,P107_Exp3,NA,20,M,3,18,70,9,1,13,1,1033.35112285276,210,98,410,224,0,57,783,11,7,310,253,41,0,40,0,21,Low,NA,NA,NA,NA,Low
Exp3,P107_Exp3,NA,20,M,3,18,71,11,3,15,1,1103.53017315902,30,0,149,0,330,784,4,14,8,331,252,53,0,48,0,21,Low,NA,NA,NA,NA,Low
Exp3,P107_Exp3,NA,20,M,3,18,72,12,4,16,1,2021.0298682814,108,47,297,163,147,469,210,17,7,607,252,135,0,129,0,21,Low,NA,NA,NA,NA,Low
Exp3,P108_Exp3,NA,18,F,1,1,1,1,1,5,3,4945.79757978136,210,0,4155,310,0,143,317,14,4,1484,244,0,66,0,66,6,Low,NA,NA,NA,NA,Low
Exp3,P108_Exp3,NA,18,F,1,1,2,3,3,7,1,3856.99404227489,663,0,1993,200,223,461,280,12,3,1157,252,114,0,112,0,6,Low,NA,NA,NA,NA,Low
Exp3,P108_Exp3,NA,18,F,1,1,3,4,4,8,1,2230.99297551562,130,103,1117,157,120,437,213,8,3,669,249,141,0,138,0,6,Low,NA,NA,NA,NA,Low
Exp3,P108_Exp3,NA,18,F,1,1,4,2,2,6,1,3286.62679555055,614,0,1850,200,0,410,257,10,3,986,252,120,45,101,45,6,Low,NA,NA,NA,NA,Low
Exp3,P108_Exp3,NA,18,F,1,2,5,3,3,7,1,2091.15016386204,234,0,1421,204,0,563,264,7,2,627,251,0,0,0,0,6,Low,NA,NA,NA,NA,Low
Exp3,P108_Exp3,NA,18,F,1,2,6,2,2,6,1,1119.11166276877,70,0,763,0,0,280,243,3,3,336,252,45,62,45,52,6,Low,NA,NA,NA,NA,Low
Exp3,P108_Exp3,NA,18,F,1,2,7,1,1,5,2,2785.87864615292,143,0,1971,253,0,137,316,8,3,836,248,0,46,0,46,6,Low,NA,NA,NA,NA,Low
Exp3,P108_Exp3,NA,18,F,1,2,8,4,4,8,1,1187.35490172912,70,0,997,200,0,220,253,3,2,356,252,0,102,0,102,6,Low,NA,NA,NA,NA,Low
Exp3,P108_Exp3,NA,18,F,1,3,9,2,2,6,1,1683.39530934281,210,0,982,427,133,253,257,5,3,505,253,55,15,47,5,6,Low,NA,NA,NA,NA,Low
Exp3,P108_Exp3,NA,18,F,1,3,10,1,1,5,1,1593.46826485125,150,0,1260,712,0,0,NA,5,4,478,251,0,0,0,0,6,Low,NA,NA,NA,NA,Low
Exp3,P108_Exp3,NA,18,F,1,3,11,4,4,8,1,657.403720853836,0,0,533,780,0,0,NA,2,3,198,251,0,0,0,0,6,Low,NA,NA,NA,NA,Low
Exp3,P108_Exp3,NA,18,F,1,3,12,3,3,7,1,582.844150987512,134,0,336,230,0,77,280,3,3,175,253,0,68,0,66,6,Low,NA,NA,NA,NA,Low
Exp3,P108_Exp3,NA,18,F,1,4,13,4,4,8,1,1511.0673889867,200,0,955,291,170,200,250,5,3,453,250,0,65,0,62,6,Low,NA,NA,NA,NA,Low
Exp3,P108_Exp3,NA,18,F,1,4,14,2,2,6,1,860.413765705744,170,0,578,240,0,224,296,3,3,258,251,0,0,0,0,6,Low,NA,NA,NA,NA,Low
Exp3,P108_Exp3,NA,18,F,1,4,15,1,1,5,1,2986.87289851841,576,0,1377,763,0,0,NA,10,2,897,252,52,0,52,0,6,Low,NA,NA,NA,NA,Low
Exp3,P108_Exp3,NA,18,F,1,4,16,3,3,7,1,651.583640748868,0,0,457,346,0,130,329,3,3,195,253,0,65,0,65,6,Low,NA,NA,NA,NA,Low
Exp3,P108_Exp3,NA,18,F,1,5,17,1,1,5,1,1545.67363782371,154,0,960,526,120,0,NA,5,2,464,250,51,56,43,47,6,Low,NA,NA,NA,NA,Low
Exp3,P108_Exp3,NA,18,F,1,5,18,3,3,7,2,4164.7365508943,968,0,2477,540,0,0,NA,13,2,1250,249,61,74,61,72,6,Low,NA,NA,NA,NA,Low
Exp3,P108_Exp3,NA,18,F,1,5,19,4,4,8,1,1109.66056022517,133,0,833,584,0,127,300,4,3,333,250,0,0,0,0,6,Low,NA,NA,NA,NA,Low
Exp3,P108_Exp3,NA,18,F,1,5,20,2,2,6,1,578.956551191368,137,210,347,233,0,0,NA,3,3,174,250,0,43,0,43,6,Low,NA,NA,NA,NA,Low
Exp3,P108_Exp3,NA,18,F,1,6,21,4,4,8,1,1196.37948214222,133,0,731,343,173,160,263,5,3,359,250,0,53,0,53,6,Low,NA,NA,NA,NA,Low
Exp3,P108_Exp3,NA,18,F,1,6,22,2,2,6,1,1516.49898078358,317,0,768,549,0,0,NA,6,2,455,254,0,56,0,56,6,Low,NA,NA,NA,NA,Low
Exp3,P108_Exp3,NA,18,F,1,6,23,1,1,5,1,1201.15997115499,243,0,783,763,0,0,NA,4,3,360,253,0,0,0,0,6,Low,NA,NA,NA,NA,Low
Exp3,P108_Exp3,NA,18,F,1,6,24,3,3,7,1,408.514927219585,166,0,143,403,0,313,267,3,3,122,246,0,0,0,0,6,Low,NA,NA,NA,NA,Low
Exp3,P108_Exp3,NA,18,F,2,7,25,5,1,9,1,6109.00794816371,1631,0,2462,187,0,553,240,14,3,1833,250,372,0,357,0,6,Low,NA,NA,NA,NA,Low
Exp3,P108_Exp3,NA,18,F,2,7,26,6,2,10,1,2119.60791356978,90,0,1123,0,0,590,250,5,2,636,253,139,0,139,0,6,Low,NA,NA,NA,NA,Low
Exp3,P108_Exp3,NA,18,F,2,7,27,7,3,11,1,1292.16554612867,170,0,773,326,0,406,227,4,3,387,251,50,0,50,0,6,Low,NA,NA,NA,NA,Low
Exp3,P108_Exp3,NA,18,F,2,7,28,8,4,12,1,1184.21831896012,237,0,559,200,0,589,250,5,2,355,253,49,0,49,0,6,Low,NA,NA,NA,NA,Low
Exp3,P108_Exp3,NA,18,F,2,8,29,6,2,10,2,2015.88364790223,356,0,1470,217,0,253,330,6,2,605,249,0,47,0,45,6,Low,NA,NA,NA,NA,Low
Exp3,P108_Exp3,NA,18,F,2,8,30,5,1,9,1,952.205976682308,230,0,359,354,0,292,230,3,4,285,253,0,0,0,0,6,Low,NA,NA,NA,NA,Low
Exp3,P108_Exp3,NA,18,F,2,8,31,8,4,12,1,1563.65005142106,214,0,959,74,100,631,123,5,3,469,249,26,8,26,0,6,Low,NA,NA,NA,NA,Low
Exp3,P108_Exp3,NA,18,F,2,8,32,7,3,11,1,869.958141667667,154,0,601,50,0,413,83,3,3,261,252,0,72,0,70,6,Low,NA,NA,NA,NA,Low
Exp3,P108_Exp3,NA,18,F,2,9,33,5,1,9,1,2352.56144197592,760,0,899,310,0,400,387,9,3,706,253,41,8,40,0,6,Low,NA,NA,NA,NA,Low
Exp3,P108_Exp3,NA,18,F,2,9,34,6,2,10,1,1082.73623756759,417,0,310,570,0,170,236,4,3,324,254,62,0,62,0,6,Low,NA,NA,NA,NA,Low
Exp3,P108_Exp3,NA,18,F,2,9,35,8,4,12,1,2967.91485012363,183,0,2283,836,0,0,NA,8,1,890,253,47,0,46,0,6,Low,NA,NA,NA,NA,Low
Exp3,P108_Exp3,NA,18,F,2,9,36,7,3,11,1,344.254976316734,140,53,160,150,0,193,330,2,3,103,245,0,65,0,65,6,Low,NA,NA,NA,NA,Low
Exp3,P108_Exp3,NA,18,F,2,10,37,5,1,9,1,2680.26657482187,695,56,1237,674,0,0,NA,8,4,805,249,75,0,74,0,6,Low,NA,NA,NA,NA,Low
Exp3,P108_Exp3,NA,18,F,2,10,38,8,4,12,1,1181.74672433815,393,161,644,556,0,0,NA,5,4,354,254,0,0,0,0,6,Low,NA,NA,NA,NA,Low
Exp3,P108_Exp3,NA,18,F,2,10,39,6,2,10,1,1318.78952234547,297,0,740,427,0,0,NA,4,4,396,252,47,0,47,0,6,Low,NA,NA,NA,NA,Low
Exp3,P108_Exp3,NA,18,F,2,10,40,7,3,11,1,545.504900477681,143,0,240,329,0,120,304,2,3,164,250,0,59,0,59,6,Low,NA,NA,NA,NA,Low
Exp3,P108_Exp3,NA,18,F,2,11,41,5,1,9,1,1237.91513084871,290,0,796,550,0,0,NA,3,4,372,252,0,57,0,57,6,Low,NA,NA,NA,NA,Low
Exp3,P108_Exp3,NA,18,F,2,11,42,7,3,11,1,1068.94626092981,327,0,557,567,0,0,NA,3,2,320,253,0,67,0,67,6,Low,NA,NA,NA,NA,Low
Exp3,P108_Exp3,NA,18,F,2,11,43,6,2,10,1,786.678865662907,270,0,416,527,0,146,280,4,4,236,252,0,0,0,0,6,Low,NA,NA,NA,NA,Low
Exp3,P108_Exp3,NA,18,F,2,11,44,8,4,12,1,459.742861186896,0,0,453,337,0,413,400,1,2,138,245,0,0,0,0,6,Low,NA,NA,NA,NA,Low
Exp3,P108_Exp3,NA,18,F,2,12,45,6,2,10,1,1356.75451976022,330,0,733,210,0,0,NA,4,2,407,252,19,64,0,62,6,Low,NA,NA,NA,NA,Low
Exp3,P108_Exp3,NA,18,F,2,12,46,5,1,9,1,838.151302763436,227,0,297,433,153,270,406,4,4,252,252,0,0,0,0,6,Low,NA,NA,NA,NA,Low
Exp3,P108_Exp3,NA,18,F,2,12,47,8,4,12,1,1284.26115228467,213,0,831,400,0,280,497,6,3,385,253,0,0,0,0,6,Low,NA,NA,NA,NA,Low
Exp3,P108_Exp3,NA,18,F,2,12,48,7,3,11,1,2153.36624969314,160,0,1376,207,0,243,304,4,2,646,252,144,74,138,74,6,Low,NA,NA,NA,NA,Low
Exp3,P108_Exp3,NA,18,F,3,13,49,11,3,15,1,1897.60510691667,183,0,972,167,0,610,210,5,3,569,249,173,0,165,0,6,Low,NA,NA,NA,NA,Low
Exp3,P108_Exp3,NA,18,F,3,13,50,9,1,13,1,1279.51748967098,100,0,776,77,0,660,127,4,3,384,250,60,0,60,0,6,Low,NA,NA,NA,NA,Low
Exp3,P108_Exp3,NA,18,F,3,13,51,12,4,16,1,1349.2039008197,300,0,647,0,0,730,77,6,3,405,254,0,0,0,0,6,Low,NA,NA,NA,NA,Low
Exp3,P108_Exp3,NA,18,F,3,13,52,10,2,14,1,927.551609027432,166,0,470,83,114,643,137,4,2,278,251,0,11,0,0,6,Low,NA,NA,NA,NA,Low
Exp3,P108_Exp3,NA,18,F,3,14,53,9,1,13,1,1913.149167136,574,0,800,123,0,533,167,6,3,574,249,0,0,0,0,6,Low,NA,NA,NA,NA,Low
Exp3,P108_Exp3,NA,18,F,3,14,54,12,4,16,1,2709.48741578468,683,0,1480,184,0,583,250,8,3,813,251,36,0,34,0,6,Low,NA,NA,NA,NA,Low
Exp3,P108_Exp3,NA,18,F,3,14,55,10,2,14,1,2143.70113144651,350,0,1371,346,63,160,206,7,3,643,250,0,18,0,0,6,Low,NA,NA,NA,NA,Low
Exp3,P108_Exp3,NA,18,F,3,14,56,11,3,15,1,515.599148886395,100,0,0,170,0,540,207,1,3,155,248,96,0,96,0,6,Low,NA,NA,NA,NA,Low
Exp3,P108_Exp3,NA,18,F,3,15,57,10,2,14,1,1055.8227817146,230,0,683,170,0,153,217,3,2,317,251,0,135,0,135,6,Low,NA,NA,NA,NA,Low
Exp3,P108_Exp3,NA,18,F,3,15,58,11,3,15,1,1621.20457939272,377,0,384,356,0,346,193,4,4,487,252,169,1,165,1,6,Low,NA,NA,NA,NA,Low
Exp3,P108_Exp3,NA,18,F,3,15,59,12,4,16,1,1397.9013783046,444,0,370,384,270,377,443,5,3,419,249,43,0,43,0,6,Low,NA,NA,NA,NA,Low
Exp3,P108_Exp3,NA,18,F,3,15,60,9,1,13,1,1132.87779280654,287,96,520,350,0,217,247,5,4,340,253,0,0,0,0,6,Low,NA,NA,NA,NA,Low
Exp3,P108_Exp3,NA,18,F,3,16,61,11,3,15,1,1283.53911340855,383,0,728,574,0,136,430,5,3,385,254,0,0,0,0,6,Low,NA,NA,NA,NA,Low
Exp3,P108_Exp3,NA,18,F,3,16,62,12,4,16,1,999.571666736301,310,0,550,590,0,0,NA,4,3,300,254,0,0,0,0,6,Low,NA,NA,NA,NA,Low
Exp3,P108_Exp3,NA,18,F,3,16,63,10,2,14,1,896.988415683154,284,0,93,644,0,0,NA,3,2,270,249,135,30,135,26,6,Low,NA,NA,NA,NA,Low
Exp3,P108_Exp3,NA,18,F,3,16,64,9,1,13,1,661.099944127272,233,170,294,317,0,183,380,3,3,198,250,0,0,0,0,6,Low,NA,NA,NA,NA,Low
Exp3,P108_Exp3,NA,18,F,3,17,65,10,2,14,1,1017.0868447949,227,0,496,570,160,163,293,4,3,305,253,0,0,0,0,6,Low,NA,NA,NA,NA,Low
Exp3,P108_Exp3,NA,18,F,3,17,66,12,4,16,1,1248.89241590427,180,0,926,800,0,0,NA,4,2,375,254,0,0,0,0,6,Low,NA,NA,NA,NA,Low
Exp3,P108_Exp3,NA,18,F,3,17,67,9,1,13,1,1031.21550355172,170,0,692,772,0,0,NA,4,2,310,254,0,0,0,0,6,Low,NA,NA,NA,NA,Low
Exp3,P108_Exp3,NA,18,F,3,17,68,11,3,15,1,317.254586017953,86,177,180,330,0,0,NA,2,2,96,248,0,38,0,38,6,Low,NA,NA,NA,NA,Low
Exp3,P108_Exp3,NA,18,F,3,18,69,12,4,16,1,1414.82280616583,227,0,824,739,186,0,NA,5,3,424,254,0,0,0,0,6,Low,NA,NA,NA,NA,Low
Exp3,P108_Exp3,NA,18,F,3,18,70,9,1,13,1,975.484184118613,216,434,637,314,0,0,NA,3,3,293,250,0,0,0,0,6,Low,NA,NA,NA,NA,Low
Exp3,P108_Exp3,NA,18,F,3,18,71,10,2,14,1,913.242440552494,263,0,580,560,0,0,NA,2,2,274,248,0,60,0,60,6,Low,NA,NA,NA,NA,Low
Exp3,P108_Exp3,NA,18,F,3,18,72,11,3,15,1,316.610727770239,70,74,190,331,0,270,363,2,4,95,249,0,0,0,0,6,Low,NA,NA,NA,NA,Low
Exp3,P109_Exp3,NA,19,F,1,1,1,4,4,8,4,19274.0730746027,4425,0,11950,200,0,520,247,76,3,5782,252,0,0,0,0,23,High,NA,NA,NA,NA,High
Exp3,P109_Exp3,NA,19,F,1,1,2,3,3,7,1,5283.38496544166,842,0,3475,193,0,540,246,29,3,1585,254,0,0,0,0,23,High,NA,NA,NA,NA,High
Exp3,P109_Exp3,NA,19,F,1,1,3,2,2,6,1,4359.01174241826,1621,117,1985,286,0,280,230,14,4,1307,251,31,0,31,0,23,High,NA,NA,NA,NA,High
Exp3,P109_Exp3,NA,19,F,1,1,4,1,1,5,1,2377.03845709257,641,110,1342,176,0,206,294,12,4,713,250,24,0,0,0,23,High,NA,NA,NA,NA,High
Exp3,P109_Exp3,NA,19,F,1,2,5,2,2,6,2,6238.25961910279,1905,120,3145,333,0,254,223,28,5,1871,252,60,0,60,0,23,High,NA,NA,NA,NA,High
Exp3,P109_Exp3,NA,19,F,1,2,6,3,3,7,2,8293.87167164532,2441,0,4714,530,0,0,NA,30,3,2489,250,44,0,0,0,23,High,NA,NA,NA,NA,High
Exp3,P109_Exp3,NA,19,F,1,2,7,4,4,8,1,1841.99397439261,322,0,1085,189,0,517,260,9,3,553,250,30,0,0,0,23,High,NA,NA,NA,NA,High
Exp3,P109_Exp3,NA,19,F,1,2,8,1,1,5,2,9439.23001900839,2530,263,5458,243,0,160,280,37,4,2832,252,22,0,0,0,23,High,NA,NA,NA,NA,High
Exp3,P109_Exp3,NA,19,F,1,3,9,4,4,8,2,5819.47688116088,961,0,3806,346,0,217,257,23,4,1746,253,0,0,0,0,23,High,NA,NA,NA,NA,High
Exp3,P109_Exp3,NA,19,F,1,3,10,2,2,6,2,5601.72068794873,1749,0,3169,473,0,233,260,21,3,1681,253,0,0,0,0,23,High,NA,NA,NA,NA,High
Exp3,P109_Exp3,NA,19,F,1,3,11,1,1,5,1,6440.71363090643,2070,0,3330,197,0,210,463,30,5,1933,251,16,0,0,0,23,High,NA,NA,NA,NA,High
Exp3,P109_Exp3,NA,19,F,1,3,12,3,3,7,1,4159.12288502295,556,0,2896,383,0,360,463,19,3,1248,251,0,0,0,0,23,High,NA,NA,NA,NA,High
Exp3,P109_Exp3,NA,19,F,1,4,13,4,4,8,2,9715.38830032387,3467,0,4949,521,0,170,300,35,5,2915,249,57,0,35,0,23,High,NA,NA,NA,NA,High
Exp3,P109_Exp3,NA,19,F,1,4,14,2,2,6,1,4015.72628613212,1483,247,1605,520,0,0,NA,16,3,1204,254,39,0,39,0,23,High,NA,NA,NA,NA,High
Exp3,P109_Exp3,NA,19,F,1,4,15,3,3,7,1,1814.0869779927,397,0,1079,823,0,0,NA,8,1,544,249,0,0,0,0,23,High,NA,NA,NA,NA,High
Exp3,P109_Exp3,NA,19,F,1,4,16,1,1,5,1,2462.4957099013,690,0,1474,820,0,0,NA,9,1,739,250,18,0,0,0,23,High,NA,NA,NA,NA,High
Exp3,P109_Exp3,NA,19,F,1,5,17,2,2,6,1,2690.81799689138,715,247,1434,493,86,0,NA,11,3,807,251,0,0,0,0,23,High,NA,NA,NA,NA,High
Exp3,P109_Exp3,NA,19,F,1,5,18,3,3,7,1,2263.78619567731,927,0,973,793,0,0,NA,11,2,679,249,0,0,0,0,23,High,NA,NA,NA,NA,High
Exp3,P109_Exp3,NA,19,F,1,5,19,1,1,5,1,1853.06929569288,497,123,992,400,0,147,276,9,4,556,253,0,0,0,0,23,High,NA,NA,NA,NA,High
Exp3,P109_Exp3,NA,19,F,1,5,20,4,4,8,1,6051.53974163113,1305,0,3920,817,0,0,NA,26,2,1816,253,0,0,0,0,23,High,NA,NA,NA,NA,High
Exp3,P109_Exp3,NA,19,F,1,6,21,1,1,5,1,4109.49297299157,1314,290,2009,227,157,0,NA,16,3,1233,251,17,0,0,0,23,High,NA,NA,NA,NA,High
Exp3,P109_Exp3,NA,19,F,1,6,22,2,2,6,1,5840.69238039228,2154,250,3168,480,0,0,NA,18,3,1752,251,21,0,0,0,23,High,NA,NA,NA,NA,High
Exp3,P109_Exp3,NA,19,F,1,6,23,3,3,7,1,1118.097620154,287,53,756,486,0,0,NA,3,5,336,252,0,0,0,0,23,High,NA,NA,NA,NA,High
Exp3,P109_Exp3,NA,19,F,1,6,24,4,4,8,1,2762.85059952716,656,0,1319,243,0,536,294,12,2,829,250,38,0,0,0,23,High,NA,NA,NA,NA,High
Exp3,P109_Exp3,NA,19,F,2,7,25,5,1,9,4,5507.6509397768,660,123,4209,174,0,293,316,18,4,1653,246,0,0,0,0,23,High,NA,NA,NA,NA,High
Exp3,P109_Exp3,NA,19,F,2,7,26,8,4,12,3,5960.31526828392,826,167,4347,517,0,0,NA,18,3,1788,245,19,0,0,0,23,High,NA,NA,NA,NA,High
Exp3,P109_Exp3,NA,19,F,2,7,27,7,3,11,1,1306.70951784577,244,0,844,610,0,120,307,8,4,392,252,0,0,0,0,23,High,NA,NA,NA,NA,High
Exp3,P109_Exp3,NA,19,F,2,7,28,6,2,10,1,1447.14764670152,370,687,740,0,0,0,NA,7,3,435,249,0,18,0,0,23,High,NA,NA,NA,NA,High
Exp3,P109_Exp3,NA,19,F,2,8,29,7,3,11,1,2379.28425007885,876,0,1024,533,0,177,270,12,3,714,249,0,0,0,0,23,High,NA,NA,NA,NA,High
Exp3,P109_Exp3,NA,19,F,2,8,30,6,2,10,1,1402.88107469678,427,483,879,273,0,0,NA,5,4,421,253,0,0,0,0,23,High,NA,NA,NA,NA,High
Exp3,P109_Exp3,NA,19,F,2,8,31,5,1,9,1,1667.29693760135,620,457,700,280,0,0,NA,8,2,501,253,13,0,0,0,23,High,NA,NA,NA,NA,High
Exp3,P109_Exp3,NA,19,F,2,8,32,8,4,12,1,1785.01995707029,330,0,863,763,0,0,NA,8,3,536,253,0,0,0,0,23,High,NA,NA,NA,NA,High
Exp3,P109_Exp3,NA,19,F,2,9,33,6,2,10,1,2834.09415607821,670,380,1586,390,0,0,NA,10,2,850,253,0,0,0,0,23,High,NA,NA,NA,NA,High
Exp3,P109_Exp3,NA,19,F,2,9,34,7,3,11,1,1104.95822191206,360,0,687,633,0,0,NA,3,4,332,252,0,0,0,0,23,High,NA,NA,NA,NA,High
Exp3,P109_Exp3,NA,19,F,2,9,35,8,4,12,1,1763.44464799513,560,0,914,756,0,0,NA,5,3,529,250,0,0,0,0,23,High,NA,NA,NA,NA,High
Exp3,P109_Exp3,NA,19,F,2,9,36,5,1,9,1,933.691452795756,316,0,504,220,0,242,257,5,4,280,253,0,0,0,0,23,High,NA,NA,NA,NA,High
Exp3,P109_Exp3,NA,19,F,2,10,37,8,4,12,2,6343.19490011785,1346,0,4152,641,0,0,NA,23,4,1903,246,34,0,34,0,23,High,NA,NA,NA,NA,High
Exp3,P109_Exp3,NA,19,F,2,10,38,7,3,11,1,1176.21083407994,327,0,694,337,0,374,263,4,4,352,251,0,0,0,0,23,High,NA,NA,NA,NA,High
Exp3,P109_Exp3,NA,19,F,2,10,39,6,2,10,1,1443.02915214394,370,373,933,227,0,114,273,3,3,433,250,23,0,0,0,23,High,NA,NA,NA,NA,High
Exp3,P109_Exp3,NA,19,F,2,10,40,5,1,9,1,1018.07621871194,223,0,696,771,0,0,NA,4,3,305,253,0,0,0,0,23,High,NA,NA,NA,NA,High
Exp3,P109_Exp3,NA,19,F,2,11,41,8,4,12,2,5801.67897174033,1280,0,3476,802,153,0,NA,22,2,1741,253,22,0,0,0,23,High,NA,NA,NA,NA,High
Exp3,P109_Exp3,NA,19,F,2,11,42,5,1,9,1,1375.40572936814,331,373,839,380,0,0,NA,7,4,412,251,0,0,0,0,23,High,NA,NA,NA,NA,High
Exp3,P109_Exp3,NA,19,F,2,11,43,7,3,11,1,1025.15891853,327,0,563,473,0,0,NA,6,3,308,250,0,0,0,0,23,High,NA,NA,NA,NA,High
Exp3,P109_Exp3,NA,19,F,2,11,44,6,2,10,1,1224.94393818488,217,0,906,586,0,180,633,2,2,368,251,0,0,0,0,23,High,NA,NA,NA,NA,High
Exp3,P109_Exp3,NA,19,F,2,12,45,5,1,9,1,1792.17902592336,563,0,770,830,0,0,NA,8,1,538,251,7,0,0,0,23,High,NA,NA,NA,NA,High
Exp3,P109_Exp3,NA,19,F,2,12,46,6,2,10,1,1457.34004535643,347,267,829,487,0,0,NA,6,3,437,251,0,0,0,0,23,High,NA,NA,NA,NA,High
Exp3,P109_Exp3,NA,19,F,2,12,47,7,3,11,1,958.601643715156,307,217,580,189,0,163,247,4,5,287,251,0,0,0,0,23,High,NA,NA,NA,NA,High
Exp3,P109_Exp3,NA,19,F,2,12,48,8,4,12,1,865.096664182602,96,0,680,836,0,0,NA,4,1,260,253,0,0,0,0,23,High,NA,NA,NA,NA,High
Exp3,P109_Exp3,NA,19,F,3,13,49,11,3,15,1,1689.26194005689,286,312,1072,467,0,0,NA,9,3,506,252,0,0,0,0,23,High,NA,NA,NA,NA,High
Exp3,P109_Exp3,NA,19,F,3,13,50,10,2,14,1,3215.29789508168,937,200,1592,270,0,250,266,16,4,965,253,0,0,0,0,23,High,NA,NA,NA,NA,High
Exp3,P109_Exp3,NA,19,F,3,13,51,12,4,16,1,1182.79668238483,277,277,639,413,0,0,NA,5,4,355,253,0,0,0,0,23,High,NA,NA,NA,NA,High
Exp3,P109_Exp3,NA,19,F,3,13,52,9,1,13,1,1334.9292348812,274,0,872,797,0,0,NA,5,2,401,253,0,0,0,0,23,High,NA,NA,NA,NA,High
Exp3,P109_Exp3,NA,19,F,3,14,53,10,2,14,1,2788.73909892354,300,0,2100,461,0,264,300,13,4,836,252,0,0,0,0,23,High,NA,NA,NA,NA,High
Exp3,P109_Exp3,NA,19,F,3,14,54,9,1,13,1,1118.60745138347,336,114,600,347,0,180,283,7,4,336,252,0,0,0,0,23,High,NA,NA,NA,NA,High
Exp3,P109_Exp3,NA,19,F,3,14,55,11,3,15,1,1018.39648569694,307,60,636,234,0,267,286,6,5,306,253,0,0,0,0,23,High,NA,NA,NA,NA,High
Exp3,P109_Exp3,NA,19,F,3,14,56,12,4,16,1,857.139493627983,220,153,533,370,0,0,NA,5,4,258,251,0,0,0,0,23,High,NA,NA,NA,NA,High
Exp3,P109_Exp3,NA,19,F,3,15,57,9,1,13,1,1283.03904087716,180,197,713,156,0,0,NA,5,3,385,253,0,0,0,0,23,High,NA,NA,NA,NA,High
Exp3,P109_Exp3,NA,19,F,3,15,58,12,4,16,1,1393.19941283338,346,47,765,666,0,0,NA,7,4,418,250,0,0,0,0,23,High,NA,NA,NA,NA,High
Exp3,P109_Exp3,NA,19,F,3,15,59,11,3,15,1,889.209357108484,278,156,534,571,0,0,NA,3,4,267,251,0,0,0,0,23,High,NA,NA,NA,NA,High
Exp3,P109_Exp3,NA,19,F,3,15,60,10,2,14,1,814.392152281471,264,253,473,293,0,0,NA,4,4,244,249,0,0,0,0,23,High,NA,NA,NA,NA,High
Exp3,P109_Exp3,NA,19,F,3,16,61,12,4,16,1,1200.00356187666,270,0,506,720,0,0,NA,7,4,360,254,0,0,0,0,23,High,NA,NA,NA,NA,High
Exp3,P109_Exp3,NA,19,F,3,16,62,11,3,15,1,936.466093808122,383,254,313,457,0,0,NA,4,3,281,252,0,0,0,0,23,High,NA,NA,NA,NA,High
Exp3,P109_Exp3,NA,19,F,3,16,63,9,1,13,1,1227.61232662651,293,0,743,697,0,0,NA,6,3,368,250,0,0,0,0,23,High,NA,NA,NA,NA,High
Exp3,P109_Exp3,NA,19,F,3,16,64,10,2,14,1,875.304457385937,250,243,560,243,0,0,NA,3,4,263,250,0,0,0,0,23,High,NA,NA,NA,NA,High
Exp3,P109_Exp3,NA,19,F,3,17,65,11,3,15,1,1201.9785919174,173,366,775,196,0,0,NA,4,5,361,253,0,0,0,0,23,High,NA,NA,NA,NA,High
Exp3,P109_Exp3,NA,19,F,3,17,66,12,4,16,1,1219.44778244506,296,283,769,476,0,0,NA,5,2,366,253,0,0,0,0,23,High,NA,NA,NA,NA,High
Exp3,P109_Exp3,NA,19,F,3,17,67,10,2,14,1,1875.17315094101,410,113,1177,664,0,0,NA,10,3,562,251,0,0,0,0,23,High,NA,NA,NA,NA,High
Exp3,P109_Exp3,NA,19,F,3,17,68,9,1,13,1,815.810261885417,233,0,474,837,0,0,NA,4,1,245,253,0,0,0,0,23,High,NA,NA,NA,NA,High
Exp3,P109_Exp3,NA,19,F,3,18,69,12,4,16,1,1160.06436732459,194,233,616,512,0,0,NA,5,4,348,255,0,0,0,0,23,High,NA,NA,NA,NA,High
Exp3,P109_Exp3,NA,19,F,3,18,70,11,3,15,1,824.858030566247,84,110,470,579,0,0,NA,4,4,248,251,0,0,0,0,23,High,NA,NA,NA,NA,High
Exp3,P109_Exp3,NA,19,F,3,18,71,10,2,14,1,856.608532624705,253,200,527,459,0,0,NA,4,4,257,252,0,0,0,0,23,High,NA,NA,NA,NA,High
Exp3,P109_Exp3,NA,19,F,3,18,72,9,1,13,1,528.081618878787,0,0,426,790,0,0,NA,4,2,159,245,0,0,0,0,23,High,NA,NA,NA,NA,High
Exp3,P110_Exp3,NA,18,M,1,1,1,3,3,7,4,6578.32530188534,779,0,3308,303,167,433,193,31,4,1973,245,0,0,0,0,20,Low,NA,NA,NA,NA,Low
Exp3,P110_Exp3,NA,18,M,1,1,2,2,2,6,3,2641.60719050778,217,0,1960,454,0,264,180,8,4,793,246,7,0,0,0,20,Low,NA,NA,NA,NA,Low
Exp3,P110_Exp3,NA,18,M,1,1,3,4,4,8,1,1952.21370847503,420,0,1206,364,0,349,220,10,3,585,253,0,0,0,0,20,Low,NA,NA,NA,NA,Low
Exp3,P110_Exp3,NA,18,M,1,1,4,1,1,5,2,3794.66326492548,326,0,2943,323,0,323,206,14,5,1138,245,0,0,0,0,20,Low,NA,NA,NA,NA,Low
Exp3,P110_Exp3,NA,18,M,1,2,5,2,2,6,3,4530.22960554517,150,0,3590,260,0,193,183,13,3,1359,249,0,45,0,45,20,Low,NA,NA,NA,NA,Low
Exp3,P110_Exp3,NA,18,M,1,2,6,1,1,5,1,1597.47398886248,393,0,914,344,0,0,NA,7,2,479,249,0,0,0,0,20,Low,NA,NA,NA,NA,Low
Exp3,P110_Exp3,NA,18,M,1,2,7,4,4,8,4,3916.63607835289,230,160,2913,223,0,180,270,13,4,1175,249,46,0,41,0,20,Low,NA,NA,NA,NA,Low
Exp3,P110_Exp3,NA,18,M,1,2,8,3,3,7,2,2545.65366220777,286,103,1806,156,0,216,187,8,3,763,245,0,67,0,64,20,Low,NA,NA,NA,NA,Low
Exp3,P110_Exp3,NA,18,M,1,3,9,2,2,6,2,2434.70803655873,240,150,1366,327,127,200,210,9,4,731,248,136,0,131,0,20,Low,NA,NA,NA,NA,Low
Exp3,P110_Exp3,NA,18,M,1,3,10,1,1,5,1,1729.23214477487,170,0,1339,300,0,186,257,5,4,519,250,0,0,0,0,20,Low,NA,NA,NA,NA,Low
Exp3,P110_Exp3,NA,18,M,1,3,11,4,4,8,1,1694.03063016944,124,0,1223,496,0,233,223,6,3,508,250,0,0,0,0,20,Low,NA,NA,NA,NA,Low
Exp3,P110_Exp3,NA,18,M,1,3,12,3,3,7,1,2019.07352424314,300,294,1450,163,0,133,203,8,5,606,252,0,0,0,0,20,Low,NA,NA,NA,NA,Low
Exp3,P110_Exp3,NA,18,M,1,4,13,2,2,6,1,1423.38955545711,0,313,900,160,144,160,194,5,4,427,252,0,0,0,0,20,Low,NA,NA,NA,NA,Low
Exp3,P110_Exp3,NA,18,M,1,4,14,1,1,5,1,1175.12584475116,170,0,814,510,0,234,240,5,3,353,251,0,0,0,0,20,Low,NA,NA,NA,NA,Low
Exp3,P110_Exp3,NA,18,M,1,4,15,4,4,8,1,3304.98893387266,437,0,2058,427,0,257,53,12,3,991,252,57,0,55,0,20,Low,NA,NA,NA,NA,Low
Exp3,P110_Exp3,NA,18,M,1,4,16,3,3,7,1,2100.12007925616,384,0,1486,537,0,236,283,9,3,630,253,0,0,0,0,20,Low,NA,NA,NA,NA,Low
Exp3,P110_Exp3,NA,18,M,1,5,17,1,1,5,1,1164.83488951417,170,0,599,774,0,0,NA,5,3,350,254,0,0,0,0,20,Low,NA,NA,NA,NA,Low
Exp3,P110_Exp3,NA,18,M,1,5,18,4,4,8,1,887.601831916982,147,0,613,719,0,0,NA,4,5,266,252,0,0,0,0,20,Low,NA,NA,NA,NA,Low
Exp3,P110_Exp3,NA,18,M,1,5,19,2,2,6,1,699.706472929392,223,0,393,523,0,167,247,3,3,210,253,0,0,0,0,20,Low,NA,NA,NA,NA,Low
Exp3,P110_Exp3,NA,18,M,1,5,20,3,3,7,1,911.218324490619,0,0,770,626,0,0,NA,7,3,273,250,0,0,0,0,20,Low,NA,NA,NA,NA,Low
Exp3,P110_Exp3,NA,18,M,1,6,21,4,4,8,1,1773.33606615866,180,223,987,60,417,0,NA,6,3,532,251,0,49,0,49,20,Low,NA,NA,NA,NA,Low
Exp3,P110_Exp3,NA,18,M,1,6,22,2,2,6,1,1455.02219866466,260,0,636,759,0,0,NA,8,3,437,252,0,0,0,0,20,Low,NA,NA,NA,NA,Low
Exp3,P110_Exp3,NA,18,M,1,6,23,3,3,7,1,941.36914500632,196,0,580,394,0,0,NA,4,4,283,251,0,0,0,0,20,Low,NA,NA,NA,NA,Low
Exp3,P110_Exp3,NA,18,M,1,6,24,1,1,5,1,751.481520834204,83,0,430,506,0,180,247,3,4,225,253,0,0,0,0,20,Low,NA,NA,NA,NA,Low
Exp3,P110_Exp3,NA,18,M,2,7,25,6,2,10,3,3502.90357557242,230,140,2739,319,0,243,203,10,4,1051,248,0,0,0,0,20,Low,NA,NA,NA,NA,Low
Exp3,P110_Exp3,NA,18,M,2,7,26,8,4,12,4,3458.68736288321,311,0,2794,449,0,0,NA,9,4,1038,246,0,0,0,0,20,Low,NA,NA,NA,NA,Low
Exp3,P110_Exp3,NA,18,M,2,7,27,7,3,11,3,4194.60929265188,377,0,3332,210,0,404,367,12,4,1258,250,0,0,0,0,20,Low,NA,NA,NA,NA,Low
Exp3,P110_Exp3,NA,18,M,2,7,28,5,1,9,3,3394.31425628572,90,190,2640,267,0,190,206,10,4,1019,245,0,0,0,0,20,Low,NA,NA,NA,NA,Low
Exp3,P110_Exp3,NA,18,M,2,8,29,8,4,12,1,2261.40058657256,206,183,1607,220,0,223,223,7,4,678,250,0,0,0,0,20,Low,NA,NA,NA,NA,Low
Exp3,P110_Exp3,NA,18,M,2,8,30,7,3,11,1,2619.70736642979,403,233,1926,320,0,130,220,9,4,786,253,0,0,0,0,20,Low,NA,NA,NA,NA,Low
Exp3,P110_Exp3,NA,18,M,2,8,31,6,2,10,1,1739.27285943137,254,0,1252,463,0,263,194,8,4,522,252,0,0,0,0,20,Low,NA,NA,NA,NA,Low
Exp3,P110_Exp3,NA,18,M,2,8,32,5,1,9,3,3276.38513745842,263,0,2636,483,0,216,234,11,3,983,245,0,0,0,0,20,Low,NA,NA,NA,NA,Low
Exp3,P110_Exp3,NA,18,M,2,9,33,7,3,11,2,2551.42519406581,343,187,1900,197,0,127,233,6,3,765,248,0,47,0,47,20,Low,NA,NA,NA,NA,Low
Exp3,P110_Exp3,NA,18,M,2,9,34,8,4,12,1,1153.34012313542,190,346,681,356,0,0,NA,5,4,346,253,0,0,0,0,20,Low,NA,NA,NA,NA,Low
Exp3,P110_Exp3,NA,18,M,2,9,35,5,1,9,2,5594.94169907703,374,267,4338,166,0,234,210,17,4,1679,245,0,0,0,0,20,Low,NA,NA,NA,NA,Low
Exp3,P110_Exp3,NA,18,M,2,9,36,6,2,10,1,1077.0381778384,267,204,633,273,0,203,237,6,4,323,250,0,0,0,0,20,Low,NA,NA,NA,NA,Low
Exp3,P110_Exp3,NA,18,M,2,10,37,7,3,11,1,2755.01145250746,220,120,1787,540,0,0,NA,12,4,827,252,0,0,0,0,20,Low,NA,NA,NA,NA,Low
Exp3,P110_Exp3,NA,18,M,2,10,38,5,1,9,1,1157.22866253782,329,0,700,707,0,0,NA,6,3,347,251,0,0,0,0,20,Low,NA,NA,NA,NA,Low
Exp3,P110_Exp3,NA,18,M,2,10,39,8,4,12,1,1504.65344848999,100,0,1186,710,0,0,NA,6,3,451,252,0,0,0,0,20,Low,NA,NA,NA,NA,Low
Exp3,P110_Exp3,NA,18,M,2,10,40,6,2,10,1,644.978042822913,153,0,369,233,0,230,213,4,4,193,250,0,0,0,0,20,Low,NA,NA,NA,NA,Low
Exp3,P110_Exp3,NA,18,M,2,11,41,8,4,12,4,4781.82734184884,167,0,3374,694,0,0,NA,15,4,1435,249,224,0,220,0,20,Low,NA,NA,NA,NA,Low
Exp3,P110_Exp3,NA,18,M,2,11,42,5,1,9,2,2759.11280205401,127,0,2154,167,0,166,207,9,3,827,246,0,0,0,0,20,Low,NA,NA,NA,NA,Low
Exp3,P110_Exp3,NA,18,M,2,11,43,7,3,11,1,865.963115324121,293,0,454,473,0,0,NA,4,2,260,253,0,52,0,50,20,Low,NA,NA,NA,NA,Low
Exp3,P110_Exp3,NA,18,M,2,11,44,6,2,10,1,782.732313215092,170,0,513,436,0,183,220,3,5,235,253,0,0,0,0,20,Low,NA,NA,NA,NA,Low
Exp3,P110_Exp3,NA,18,M,2,12,45,5,1,9,1,2924.17136861695,176,0,1666,779,0,0,NA,9,2,878,251,161,0,157,0,20,Low,NA,NA,NA,NA,Low
Exp3,P110_Exp3,NA,18,M,2,12,46,6,2,10,1,1287.68641263014,227,0,951,758,0,0,NA,4,3,386,252,0,0,0,0,20,Low,NA,NA,NA,NA,Low
Exp3,P110_Exp3,NA,18,M,2,12,47,7,3,11,1,644.711803746759,177,0,366,727,0,0,NA,4,3,193,250,0,0,0,0,20,Low,NA,NA,NA,NA,Low
Exp3,P110_Exp3,NA,18,M,2,12,48,8,4,12,1,523.866733154136,147,0,206,666,0,0,NA,3,3,157,246,0,0,0,0,20,Low,NA,NA,NA,NA,Low
Exp3,P110_Exp3,NA,18,M,3,13,49,11,3,15,3,3608.38284816782,320,120,2909,293,0,196,200,13,4,1082,246,0,0,0,0,20,Low,NA,NA,NA,NA,Low
Exp3,P110_Exp3,NA,18,M,3,13,50,9,1,13,1,1009.04005418852,310,0,547,173,0,620,210,6,2,303,250,0,0,0,0,20,Low,NA,NA,NA,NA,Low
Exp3,P110_Exp3,NA,18,M,3,13,51,12,4,16,2,4120.67120017673,0,0,2399,213,183,400,174,15,3,1236,248,109,0,109,0,20,Low,NA,NA,NA,NA,Low
Exp3,P110_Exp3,NA,18,M,3,13,52,10,2,14,2,2931.68764179791,153,0,2390,143,0,636,190,8,2,879,249,0,0,0,0,20,Low,NA,NA,NA,NA,Low
Exp3,P110_Exp3,NA,18,M,3,14,53,9,1,13,1,1584.99154192759,287,0,946,137,157,643,173,5,4,476,252,0,0,0,0,20,Low,NA,NA,NA,NA,Low
Exp3,P110_Exp3,NA,18,M,3,14,54,11,3,15,1,1363.07916054648,0,0,823,246,40,240,156,5,4,409,250,23,0,0,0,20,Low,NA,NA,NA,NA,Low
Exp3,P110_Exp3,NA,18,M,3,14,55,10,2,14,1,1645.45014929899,590,190,581,126,200,250,160,7,4,494,250,0,0,0,0,20,Low,NA,NA,NA,NA,Low
Exp3,P110_Exp3,NA,18,M,3,14,56,12,4,16,1,1164.49439328426,0,0,893,333,176,283,206,5,4,349,249,0,0,0,0,20,Low,NA,NA,NA,NA,Low
Exp3,P110_Exp3,NA,18,M,3,15,57,10,2,14,3,3520.10587984114,443,144,2469,156,0,340,190,10,3,1056,248,0,0,0,0,20,Low,NA,NA,NA,NA,Low
Exp3,P110_Exp3,NA,18,M,3,15,58,11,3,15,2,2020.07448657241,140,0,1487,290,0,381,190,6,4,606,248,0,0,0,0,20,Low,NA,NA,NA,NA,Low
Exp3,P110_Exp3,NA,18,M,3,15,59,9,1,13,2,2141.59541803019,0,0,1062,293,94,394,196,10,4,642,246,84,0,84,0,20,Low,NA,NA,NA,NA,Low
Exp3,P110_Exp3,NA,18,M,3,15,60,12,4,16,1,833.151715221902,0,57,696,314,0,281,200,4,5,250,253,0,0,0,0,20,Low,NA,NA,NA,NA,Low
Exp3,P110_Exp3,NA,18,M,3,16,61,11,3,15,4,3668.25705775045,114,150,3222,153,0,100,186,9,3,1101,248,0,65,0,60,20,Low,NA,NA,NA,NA,Low
Exp3,P110_Exp3,NA,18,M,3,16,62,12,4,16,1,2003.3279884301,0,0,1655,510,0,233,187,8,3,601,253,0,0,0,0,20,Low,NA,NA,NA,NA,Low
Exp3,P110_Exp3,NA,18,M,3,16,63,10,2,14,1,1162.68052639134,243,0,743,427,0,327,100,5,4,348,250,0,0,0,0,20,Low,NA,NA,NA,NA,Low
Exp3,P110_Exp3,NA,18,M,3,16,64,9,1,13,1,717.070875136415,0,0,646,377,0,110,203,3,4,215,253,0,0,0,0,20,Low,NA,NA,NA,NA,Low
Exp3,P110_Exp3,NA,18,M,3,17,65,10,2,14,1,2594.60029727052,570,0,949,753,0,0,NA,10,3,778,250,0,0,0,0,20,Low,NA,NA,NA,NA,Low
Exp3,P110_Exp3,NA,18,M,3,17,66,11,3,15,1,1034.4526040135,0,0,754,824,0,0,NA,4,2,311,253,0,0,0,0,20,Low,NA,NA,NA,NA,Low
Exp3,P110_Exp3,NA,18,M,3,17,67,12,4,16,1,1880.64761900023,147,0,1173,728,0,0,NA,6,2,565,249,0,0,0,0,20,Low,NA,NA,NA,NA,Low
Exp3,P110_Exp3,NA,18,M,3,17,68,9,1,13,1,279.206003840955,0,60,217,297,0,0,NA,1,4,83,245,0,0,0,0,20,Low,NA,NA,NA,NA,Low
Exp3,P110_Exp3,NA,18,M,3,18,69,10,2,14,1,1629.73510117808,130,0,756,300,154,0,NA,7,3,489,249,65,10,65,0,20,Low,NA,NA,NA,NA,Low
Exp3,P110_Exp3,NA,18,M,3,18,70,11,3,15,1,780.423700471147,163,226,406,223,0,0,NA,3,3,234,249,0,0,0,0,20,Low,NA,NA,NA,NA,Low
Exp3,P110_Exp3,NA,18,M,3,18,71,12,4,16,1,783.220116325538,256,230,429,307,0,76,197,4,4,235,254,0,0,0,0,20,Low,NA,NA,NA,NA,Low
Exp3,P110_Exp3,NA,18,M,3,18,72,9,1,13,1,559.350787185394,160,170,340,190,0,0,NA,2,3,168,251,0,0,0,0,20,Low,NA,NA,NA,NA,Low
Exp3,P111_Exp3,NA,18,F,1,1,1,4,4,8,4,5297.98774529991,190,0,4167,227,0,290,270,17,4,1589,244,22,44,0,44,24,High,NA,NA,NA,NA,High
Exp3,P111_Exp3,NA,18,F,1,1,2,1,1,5,4,4325.45623090482,270,30,3272,206,0,296,244,16,4,1298,246,0,0,0,0,24,High,NA,NA,NA,NA,High
Exp3,P111_Exp3,NA,18,F,1,1,3,3,3,7,2,2201.64565203959,104,0,1664,357,0,366,277,11,3,660,248,0,0,0,0,24,High,NA,NA,NA,NA,High
Exp3,P111_Exp3,NA,18,F,1,1,4,2,2,6,1,1226.61598725608,167,120,714,276,0,256,137,7,4,368,250,34,0,34,0,24,High,NA,NA,NA,NA,High
Exp3,P111_Exp3,NA,18,F,1,2,5,4,4,8,4,5091.63859165346,57,80,4009,124,0,163,347,15,5,1528,246,0,0,0,0,24,High,NA,NA,NA,NA,High
Exp3,P111_Exp3,NA,18,F,1,2,6,2,2,6,2,3096.07736659382,0,0,2014,352,0,380,140,8,3,929,245,210,0,204,0,24,High,NA,NA,NA,NA,High
Exp3,P111_Exp3,NA,18,F,1,2,7,3,3,7,2,2556.67369284129,294,0,2019,437,0,0,NA,7,4,767,247,0,0,0,0,24,High,NA,NA,NA,NA,High
Exp3,P111_Exp3,NA,18,F,1,2,8,1,1,5,1,903.681451414741,173,0,581,146,0,530,180,6,3,271,252,0,27,0,27,24,High,NA,NA,NA,NA,High
Exp3,P111_Exp3,NA,18,F,1,3,9,3,3,7,2,2965.05879678807,234,0,2055,389,0,274,243,11,3,890,249,31,0,31,0,24,High,NA,NA,NA,NA,High
Exp3,P111_Exp3,NA,18,F,1,3,10,2,2,6,1,1301.3464837386,70,0,998,257,0,167,146,5,4,391,253,26,0,26,0,24,High,NA,NA,NA,NA,High
Exp3,P111_Exp3,NA,18,F,1,3,11,1,1,5,1,938.87560895746,203,0,464,540,0,167,147,6,3,281,252,0,0,0,0,24,High,NA,NA,NA,NA,High
Exp3,P111_Exp3,NA,18,F,1,3,12,4,4,8,1,396.981633039104,0,0,316,0,0,0,NA,2,4,119,244,0,0,0,0,24,High,NA,NA,NA,NA,High
Exp3,P111_Exp3,NA,18,F,1,4,13,3,3,7,1,990.628917512367,170,0,693,369,0,163,213,4,4,297,251,0,0,0,0,24,High,NA,NA,NA,NA,High
Exp3,P111_Exp3,NA,18,F,1,4,14,4,4,8,3,2424.87513021115,120,0,1777,630,0,0,NA,9,3,728,245,33,14,33,14,24,High,NA,NA,NA,NA,High
Exp3,P111_Exp3,NA,18,F,1,4,15,2,2,6,1,777.157801541762,NA,0,NA,436,NA,0,NA,NA,6,233,250,233,69,233,64,24,High,NA,NA,NA,NA,High
Exp3,P111_Exp3,NA,18,F,1,4,16,1,1,5,1,1562.07176235694,146,0,1004,210,0,547,140,11,3,468,250,0,0,0,0,24,High,NA,NA,NA,NA,High
Exp3,P111_Exp3,NA,18,F,1,5,17,3,3,7,2,3117.47525017199,116,0,1434,433,150,283,147,14,4,935,249,83,0,73,0,24,High,NA,NA,NA,NA,High
Exp3,P111_Exp3,NA,18,F,1,5,18,1,1,5,2,1817.76421577524,160,228,1457,240,0,174,156,6,7,546,248,0,0,0,0,24,High,NA,NA,NA,NA,High
Exp3,P111_Exp3,NA,18,F,1,5,19,2,2,6,2,2354.26374442977,187,64,1577,314,0,230,147,8,4,706,247,41,0,36,0,24,High,NA,NA,NA,NA,High
Exp3,P111_Exp3,NA,18,F,1,5,20,4,4,8,1,773.220407438203,161,151,393,363,0,0,NA,6,6,232,251,0,0,0,0,24,High,NA,NA,NA,NA,High
Exp3,P111_Exp3,NA,18,F,1,6,21,3,3,7,2,1992.39446627689,177,256,1156,413,0,0,NA,7,4,598,246,0,0,0,0,24,High,NA,NA,NA,NA,High
Exp3,P111_Exp3,NA,18,F,1,6,22,4,4,8,3,3401.1487386560502,176,0,2633,397,0,0,NA,11,5,1021,248,0,0,0,0,24,High,NA,NA,NA,NA,High
Exp3,P111_Exp3,NA,18,F,1,6,23,2,2,6,1,1299.0532927688,0,0,913,420,0,210,163,6,3,389,254,0,44,0,44,24,High,NA,NA,NA,NA,High
Exp3,P111_Exp3,NA,18,F,1,6,24,1,1,5,1,1150.58691139348,0,0,733,30,0,133,133,6,7,345,253,0,40,0,0,24,High,NA,NA,NA,NA,High
Exp3,P111_Exp3,NA,18,F,2,7,25,5,1,9,4,3608.38957140004,0,380,2735,170,0,0,NA,11,3,1083,246,0,0,0,0,24,High,NA,NA,NA,NA,High
Exp3,P111_Exp3,NA,18,F,2,7,26,8,4,12,3,3794.35296063821,796,0,2132,297,93,159,300,16,5,1138,251,0,22,0,0,24,High,NA,NA,NA,NA,High
Exp3,P111_Exp3,NA,18,F,2,7,27,7,3,11,2,3794.38978692269,358,110,2201,200,0,360,237,18,4,1139,245,39,0,39,0,24,High,NA,NA,NA,NA,High
Exp3,P111_Exp3,NA,18,F,2,7,28,6,2,10,1,867.793027817243,91,0,524,0,0,820,4,5,2,260,253,0,0,0,0,24,High,NA,NA,NA,NA,High
Exp3,P111_Exp3,NA,18,F,2,8,29,8,4,12,3,3799.2994553606,315,0,2750,144,136,588,180,10,8,1140,254,0,0,0,0,24,High,NA,NA,NA,NA,High
Exp3,P111_Exp3,NA,18,F,2,8,30,5,1,9,3,3600.58088939331,87,283,2971,214,0,160,250,10,4,1081,253,51,0,44,0,24,High,NA,NA,NA,NA,High
Exp3,P111_Exp3,NA,18,F,2,8,31,7,3,11,2,1792.81953821919,219,0,1364,416,0,164,150,6,5,538,245,0,0,0,0,24,High,NA,NA,NA,NA,High
Exp3,P111_Exp3,NA,18,F,2,8,32,6,2,10,1,601.516941147565,137,0,246,133,0,574,170,6,3,180,253,0,22,0,0,24,High,NA,NA,NA,NA,High
Exp3,P111_Exp3,NA,18,F,2,9,33,7,3,11,4,4413.72793403934,224,90,3160,576,0,0,NA,16,4,1325,244,0,0,0,0,24,High,NA,NA,NA,NA,High
Exp3,P111_Exp3,NA,18,F,2,9,34,5,1,9,3,3566.6345996251,146,220,2869,280,0,157,156,11,4,1070,248,0,0,0,0,24,High,NA,NA,NA,NA,High
Exp3,P111_Exp3,NA,18,F,2,9,35,8,4,12,1,1232.83600741343,329,0,554,583,0,137,167,7,4,370,254,21,0,0,0,24,High,NA,NA,NA,NA,High
Exp3,P111_Exp3,NA,18,F,2,9,36,6,2,10,2,1319.9452676854,0,0,1030,260,176,403,157,4,4,396,253,0,26,0,26,24,High,NA,NA,NA,NA,High
Exp3,P111_Exp3,NA,18,F,2,10,37,5,1,9,1,1305.3197985646,163,243,813,194,0,180,233,8,4,391,252,10,0,0,0,24,High,NA,NA,NA,NA,High
Exp3,P111_Exp3,NA,18,F,2,10,38,8,4,12,3,2165.74304126698,167,0,1573,543,0,177,203,7,3,650,248,0,0,0,0,24,High,NA,NA,NA,NA,High
Exp3,P111_Exp3,NA,18,F,2,10,39,7,3,11,1,1257.28322825307,210,184,823,356,0,0,NA,6,5,377,251,0,0,0,0,24,High,NA,NA,NA,NA,High
Exp3,P111_Exp3,NA,18,F,2,10,40,6,2,10,1,350.651749809913,103,0,150,456,0,260,256,2,3,105,249,0,0,0,0,24,High,NA,NA,NA,NA,High
Exp3,P111_Exp3,NA,18,F,2,11,41,7,3,11,3,3763.93203316547,137,0,2615,553,0,0,NA,13,3,1130,249,16,37,0,32,24,High,NA,NA,NA,NA,High
Exp3,P111_Exp3,NA,18,F,2,11,42,5,1,9,1,1030.0973391204,171,0,690,324,0,0,NA,5,3,309,249,0,0,0,0,24,High,NA,NA,NA,NA,High
Exp3,P111_Exp3,NA,18,F,2,11,43,8,4,12,1,717.948679248366,190,0,390,753,0,0,NA,4,2,215,253,0,0,0,0,24,High,NA,NA,NA,NA,High
Exp3,P111_Exp3,NA,18,F,2,11,44,6,2,10,1,384.796056325285,136,89,147,264,0,373,294,4,3,116,248,0,0,0,0,24,High,NA,NA,NA,NA,High
Exp3,P111_Exp3,NA,18,F,2,12,45,5,1,9,1,878.860534325213,0,0,594,533,0,143,233,4,4,264,250,18,0,0,0,24,High,NA,NA,NA,NA,High
Exp3,P111_Exp3,NA,18,F,2,12,46,8,4,12,2,2356.77185602253,123,0,1505,711,0,0,NA,12,3,707,246,0,0,0,0,24,High,NA,NA,NA,NA,High
Exp3,P111_Exp3,NA,18,F,2,12,47,7,3,11,1,222.754962418549,0,0,216,776,0,0,NA,1,2,67,246,0,0,0,0,24,High,NA,NA,NA,NA,High
Exp3,P111_Exp3,NA,18,F,2,12,48,6,2,10,1,239.288757627946,0,0,163,93,0,294,380,2,4,72,246,0,0,0,0,24,High,NA,NA,NA,NA,High
Exp3,P111_Exp3,NA,18,F,3,13,49,10,2,14,1,1366.95160754243,123,0,787,330,0,312,194,8,6,410,254,62,0,35,0,24,High,NA,NA,NA,NA,High
Exp3,P111_Exp3,NA,18,F,3,13,50,11,3,15,1,655.615359701187,0,0,391,271,0,254,143,3,4,196,252,0,0,0,0,24,High,NA,NA,NA,NA,High
Exp3,P111_Exp3,NA,18,F,3,13,51,9,1,13,2,1918.30360013046,0,0,1541,497,0,173,174,5,3,575,248,0,14,0,0,24,High,NA,NA,NA,NA,High
Exp3,P111_Exp3,NA,18,F,3,13,52,12,4,16,1,490.708154396998,146,0,196,237,0,106,290,3,3,147,246,0,34,0,33,24,High,NA,NA,NA,NA,High
Exp3,P111_Exp3,NA,18,F,3,14,53,9,1,13,1,1073.66374159392,114,136,717,207,0,183,247,7,5,322,252,1,0,0,0,24,High,NA,NA,NA,NA,High
Exp3,P111_Exp3,NA,18,F,3,14,54,12,4,16,1,591.360734306363,0,0,497,480,0,200,137,3,4,177,251,0,0,0,0,24,High,NA,NA,NA,NA,High
Exp3,P111_Exp3,NA,18,F,3,14,55,10,2,14,1,456.62995407838,0,137,397,317,0,0,NA,2,4,137,246,0,0,0,0,24,High,NA,NA,NA,NA,High
Exp3,P111_Exp3,NA,18,F,3,14,56,11,3,15,1,438.873345043248,127,0,217,320,0,377,317,3,4,131,247,0,0,0,0,24,High,NA,NA,NA,NA,High
Exp3,P111_Exp3,NA,18,F,3,15,57,9,1,13,1,957.257359295909,0,104,821,413,0,140,250,4,4,287,251,19,0,0,0,24,High,NA,NA,NA,NA,High
Exp3,P111_Exp3,NA,18,F,3,15,58,10,2,14,2,1015.73931335952,433,0,490,566,0,140,174,4,4,305,249,0,0,0,0,24,High,NA,NA,NA,NA,High
Exp3,P111_Exp3,NA,18,F,3,15,59,12,4,16,2,1033.24236435583,0,0,841,781,0,0,NA,4,2,310,249,0,0,0,0,24,High,NA,NA,NA,NA,High
Exp3,P111_Exp3,NA,18,F,3,15,60,11,3,15,1,232.019792012579,0,346,224,137,0,127,170,1,7,69,249,0,0,0,0,24,High,NA,NA,NA,NA,High
Exp3,P111_Exp3,NA,18,F,3,16,61,12,4,16,3,2833.27683617608,103,190,2346,297,0,170,290,10,5,850,248,9,0,0,0,24,High,NA,NA,NA,NA,High
Exp3,P111_Exp3,NA,18,F,3,16,62,11,3,15,2,1311.93887077825,208,236,921,124,0,227,153,6,6,394,245,0,0,0,0,24,High,NA,NA,NA,NA,High
Exp3,P111_Exp3,NA,18,F,3,16,63,9,1,13,1,532.984127567033,123,0,196,497,0,0,NA,4,3,160,249,0,0,0,0,24,High,NA,NA,NA,NA,High
Exp3,P111_Exp3,NA,18,F,3,16,64,10,2,14,1,225.883687493479,0,70,220,153,0,0,NA,1,5,68,251,0,0,0,0,24,High,NA,NA,NA,NA,High
Exp3,P111_Exp3,NA,18,F,3,17,65,9,1,13,4,3520.45141782946,0,0,2646,227,0,149,177,10,5,1056,247,17,21,0,0,24,High,NA,NA,NA,NA,High
Exp3,P111_Exp3,NA,18,F,3,17,66,11,3,15,2,1436.70572567135,89,0,1064,407,0,130,216,6,4,431,247,0,0,0,0,24,High,NA,NA,NA,NA,High
Exp3,P111_Exp3,NA,18,F,3,17,67,12,4,16,2,1221.47177762963,164,0,833,736,0,0,NA,6,3,367,247,0,0,0,0,24,High,NA,NA,NA,NA,High
Exp3,P111_Exp3,NA,18,F,3,17,68,10,2,14,1,396.966238447931,0,0,223,224,0,294,267,2,6,119,245,0,0,0,0,24,High,NA,NA,NA,NA,High
Exp3,P111_Exp3,NA,18,F,3,18,69,11,3,15,2,2195.07668772349,70,0,1370,356,0,374,140,9,3,658,245,0,0,0,0,24,High,NA,NA,NA,NA,High
Exp3,P111_Exp3,NA,18,F,3,18,70,10,2,14,1,348.757007181121,0,0,314,740,0,0,NA,2,3,105,248,0,0,0,0,24,High,NA,NA,NA,NA,High
Exp3,P111_Exp3,NA,18,F,3,18,71,12,4,16,1,216.001564815087,0,0,210,660,0,0,NA,1,4,65,248,0,0,0,0,24,High,NA,NA,NA,NA,High
Exp3,P111_Exp3,NA,18,F,3,18,72,9,1,13,1,238.556156011327,0,200,214,0,0,106,320,1,5,72,246,0,0,0,0,24,High,NA,NA,NA,NA,High
Exp3,P112_Exp3,NA,18,F,1,1,1,3,3,7,3,5459.38236164147,300,137,4485,200,0,264,230,15,4,1640,249,55,44,38,43,17,Low,NA,NA,NA,NA,Low
Exp3,P112_Exp3,NA,18,F,1,1,2,2,2,6,2,3889.99671651618,164,0,3168,190,0,566,223,13,3,1169,245,0,0,0,0,17,Low,NA,NA,NA,NA,Low
Exp3,P112_Exp3,NA,18,F,1,1,3,4,4,8,3,5036.06644272077,301,0,4252,197,0,390,240,17,3,1512,246,0,36,0,36,17,Low,NA,NA,NA,NA,Low
Exp3,P112_Exp3,NA,18,F,1,1,4,1,1,5,1,1991.64204557383,358,0,1400,256,0,440,223,10,4,598,251,0,0,0,0,17,Low,NA,NA,NA,NA,Low
Exp3,P112_Exp3,NA,18,F,1,2,5,4,4,8,1,3163.6178123299,244,0,2396,317,0,410,247,12,4,950,254,0,0,0,0,17,Low,NA,NA,NA,NA,Low
Exp3,P112_Exp3,NA,18,F,1,2,6,1,1,5,1,2437.93148467375,250,0,1813,620,0,0,NA,9,2,733,251,0,49,0,46,17,Low,NA,NA,NA,NA,Low
Exp3,P112_Exp3,NA,18,F,1,2,7,2,2,6,2,5129.8615661035,419,110,3755,186,0,436,226,24,4,1540,253,28,0,28,0,17,Low,NA,NA,NA,NA,Low
Exp3,P112_Exp3,NA,18,F,1,2,8,3,3,7,1,2487.34502582374,149,150,1973,320,0,120,237,8,5,747,252,0,53,0,45,17,Low,NA,NA,NA,NA,Low
Exp3,P112_Exp3,NA,18,F,1,3,9,4,4,8,1,2006.0447427968,310,0,1180,723,0,0,NA,9,3,602,251,0,0,0,0,17,Low,NA,NA,NA,NA,Low
Exp3,P112_Exp3,NA,18,F,1,3,10,1,1,5,1,1310.0216155035,161,0,962,460,0,230,210,6,4,394,249,0,0,0,0,17,Low,NA,NA,NA,NA,Low
Exp3,P112_Exp3,NA,18,F,1,3,11,3,3,7,1,1515.21241174487,161,0,1191,620,0,0,NA,5,3,455,254,0,47,0,47,17,Low,NA,NA,NA,NA,Low
Exp3,P112_Exp3,NA,18,F,1,3,12,2,2,6,1,878.569354586944,148,0,560,406,0,0,NA,5,4,264,250,0,0,0,0,17,Low,NA,NA,NA,NA,Low
Exp3,P112_Exp3,NA,18,F,1,4,13,1,1,5,1,1469.39441916766,279,0,733,404,0,173,230,10,3,441,252,0,48,0,46,17,Low,NA,NA,NA,NA,Low
Exp3,P112_Exp3,NA,18,F,1,4,14,4,4,8,1,1291.3193356726,298,310,823,373,0,0,NA,5,6,388,251,0,0,0,0,17,Low,NA,NA,NA,NA,Low
Exp3,P112_Exp3,NA,18,F,1,4,15,2,2,6,1,960.720327828312,283,110,580,613,0,0,NA,5,3,289,250,0,0,0,0,17,Low,NA,NA,NA,NA,Low
Exp3,P112_Exp3,NA,18,F,1,4,16,3,3,7,1,530.628194344899,240,0,250,593,0,0,NA,3,3,160,254,0,52,0,52,17,Low,NA,NA,NA,NA,Low
Exp3,P112_Exp3,NA,18,F,1,5,17,4,4,8,1,1263.65999407426,233,614,674,0,0,0,NA,6,9,379,254,0,0,0,0,17,Low,NA,NA,NA,NA,Low
Exp3,P112_Exp3,NA,18,F,1,5,18,1,1,5,1,685.106529246696,231,0,357,806,0,0,NA,3,1,206,252,0,0,0,0,17,Low,NA,NA,NA,NA,Low
Exp3,P112_Exp3,NA,18,F,1,5,19,3,3,7,1,659.227926422318,134,0,410,741,0,0,NA,3,3,198,251,0,0,0,0,17,Low,NA,NA,NA,NA,Low
Exp3,P112_Exp3,NA,18,F,1,5,20,2,2,6,1,568.727441135707,121,0,326,431,0,0,NA,6,3,171,253,0,0,0,0,17,Low,NA,NA,NA,NA,Low
Exp3,P112_Exp3,NA,18,F,1,6,21,1,1,5,1,1328.54630388101,153,589,936,70,0,0,NA,7,7,399,249,0,0,0,0,17,Low,NA,NA,NA,NA,Low
Exp3,P112_Exp3,NA,18,F,1,6,22,3,3,7,1,955.655503930757,198,397,591,349,0,0,NA,11,3,287,251,0,0,0,0,17,Low,NA,NA,NA,NA,Low
Exp3,P112_Exp3,NA,18,F,1,6,23,2,2,6,1,725.284108637425,287,167,360,470,0,0,NA,6,2,218,250,0,41,0,41,17,Low,NA,NA,NA,NA,Low
Exp3,P112_Exp3,NA,18,F,1,6,24,4,4,8,1,506.34339192402,197,167,253,347,0,0,NA,2,3,152,247,0,61,0,61,17,Low,NA,NA,NA,NA,Low
Exp3,P112_Exp3,NA,18,F,2,7,25,8,4,12,1,3388.76096340755,1340,40,1295,193,0,247,460,13,4,1018,251,61,0,61,0,17,Low,NA,NA,NA,NA,Low
Exp3,P112_Exp3,NA,18,F,2,7,26,5,1,9,1,2238.8270400952,369,0,1584,605,0,0,NA,10,3,672,251,0,40,0,38,17,Low,NA,NA,NA,NA,Low
Exp3,P112_Exp3,NA,18,F,2,7,27,7,3,11,1,1726.31257121247,251,110,1293,280,0,326,314,8,3,518,250,0,0,0,0,17,Low,NA,NA,NA,NA,Low
Exp3,P112_Exp3,NA,18,F,2,7,28,6,2,10,1,1034.7343560461,393,0,580,340,0,413,387,3,2,311,253,0,0,0,0,17,Low,NA,NA,NA,NA,Low
Exp3,P112_Exp3,NA,18,F,2,8,29,8,4,12,1,3363.79715256771,1250,174,1534,276,0,0,NA,13,3,1010,253,0,90,0,90,17,Low,NA,NA,NA,NA,Low
Exp3,P112_Exp3,NA,18,F,2,8,30,7,3,11,2,2414.33744969618,270,140,1294,203,190,360,246,10,3,725,249,0,0,0,0,17,Low,NA,NA,NA,NA,Low
Exp3,P112_Exp3,NA,18,F,2,8,31,6,2,10,1,1367.70054643421,144,0,874,157,0,630,193,7,3,411,253,0,0,0,0,17,Low,NA,NA,NA,NA,Low
Exp3,P112_Exp3,NA,18,F,2,8,32,5,1,9,1,1177.55406815559,267,0,726,33,0,694,73,6,5,353,250,0,0,0,0,17,Low,NA,NA,NA,NA,Low
Exp3,P112_Exp3,NA,18,F,2,9,33,7,3,11,1,3409.32267704193,507,0,2375,407,0,150,257,12,3,1024,250,0,57,0,54,17,Low,NA,NA,NA,NA,Low
Exp3,P112_Exp3,NA,18,F,2,9,34,8,4,12,1,1273.78813429823,187,246,695,166,0,153,214,6,3,383,251,0,43,0,43,17,Low,NA,NA,NA,NA,Low
Exp3,P112_Exp3,NA,18,F,2,9,35,6,2,10,1,1048.7450857072,288,0,667,160,0,574,36,5,4,315,253,0,0,0,0,17,Low,NA,NA,NA,NA,Low
Exp3,P112_Exp3,NA,18,F,2,9,36,5,1,9,1,1206.00156606088,257,0,740,220,0,487,210,8,4,362,251,0,0,0,0,17,Low,NA,NA,NA,NA,Low
Exp3,P112_Exp3,NA,18,F,2,10,37,8,4,12,1,1078.57894272092,250,266,567,227,0,0,NA,6,5,324,250,0,0,0,0,17,Low,NA,NA,NA,NA,Low
Exp3,P112_Exp3,NA,18,F,2,10,38,6,2,10,1,1004.42229861437,380,340,566,370,0,0,NA,4,4,302,252,0,0,0,0,17,Low,NA,NA,NA,NA,Low
Exp3,P112_Exp3,NA,18,F,2,10,39,7,3,11,1,797.059399064892,226,80,510,380,0,240,207,3,4,239,254,0,0,0,0,17,Low,NA,NA,NA,NA,Low
Exp3,P112_Exp3,NA,18,F,2,10,40,5,1,9,1,843.372778334015,326,0,413,250,0,437,43,4,3,253,250,0,0,0,0,17,Low,NA,NA,NA,NA,Low
Exp3,P112_Exp3,NA,18,F,2,11,41,8,4,12,1,796.718085774046,331,0,263,193,0,481,257,7,7,239,249,0,0,0,0,17,Low,NA,NA,NA,NA,Low
Exp3,P112_Exp3,NA,18,F,2,11,42,5,1,9,1,1868.72071738617,632,0,929,117,0,230,213,11,4,561,253,0,52,0,47,17,Low,NA,NA,NA,NA,Low
Exp3,P112_Exp3,NA,18,F,2,11,43,6,2,10,1,1187.0888297999,326,0,669,126,0,590,160,7,3,357,252,0,0,0,0,17,Low,NA,NA,NA,NA,Low
Exp3,P112_Exp3,NA,18,F,2,11,44,7,3,11,1,2018.22860211178,513,0,1144,157,0,493,213,11,3,606,252,0,23,0,0,17,Low,NA,NA,NA,NA,Low
Exp3,P112_Exp3,NA,18,F,2,12,45,5,1,9,1,1383.6777471879,67,110,972,0,0,416,37,6,4,416,253,0,0,0,0,17,Low,NA,NA,NA,NA,Low
Exp3,P112_Exp3,NA,18,F,2,12,46,6,2,10,1,1032.06535847858,369,0,489,144,0,563,273,5,4,310,254,0,0,0,0,17,Low,NA,NA,NA,NA,Low
Exp3,P112_Exp3,NA,18,F,2,12,47,8,4,12,1,1056.1433226394,333,0,557,366,0,317,237,8,4,318,251,0,0,0,0,17,Low,NA,NA,NA,NA,Low
Exp3,P112_Exp3,NA,18,F,2,12,48,7,3,11,1,1318.23876311682,761,247,440,163,0,74,200,8,4,396,252,0,63,0,63,17,Low,NA,NA,NA,NA,Low
Exp3,P112_Exp3,NA,18,F,3,13,49,11,3,15,1,3641.35782386802,915,0,1996,174,0,440,227,20,4,1094,250,37,0,35,0,17,Low,NA,NA,NA,NA,Low
Exp3,P112_Exp3,NA,18,F,3,13,50,9,1,13,1,1178.79931894277,383,141,636,123,0,380,150,7,5,354,249,0,29,0,29,17,Low,NA,NA,NA,NA,Low
Exp3,P112_Exp3,NA,18,F,3,13,51,12,4,16,1,2179.46988498079,470,60,1213,40,0,394,83,17,4,655,254,0,40,0,40,17,Low,NA,NA,NA,NA,Low
Exp3,P112_Exp3,NA,18,F,3,13,52,10,2,14,1,958.753253707982,213,0,556,56,0,509,187,6,4,288,251,0,0,0,0,17,Low,NA,NA,NA,NA,Low
Exp3,P112_Exp3,NA,18,F,3,14,53,9,1,13,1,1122.32915566346,233,0,617,217,0,197,240,5,5,337,251,0,35,0,35,17,Low,NA,NA,NA,NA,Low
Exp3,P112_Exp3,NA,18,F,3,14,54,10,2,14,1,1630.5166041966,350,180,1136,97,0,260,240,7,4,490,253,0,39,0,39,17,Low,NA,NA,NA,NA,Low
Exp3,P112_Exp3,NA,18,F,3,14,55,12,4,16,1,6302.47081273774,1556,129,4076,170,0,133,207,27,6,1893,251,0,36,0,36,17,Low,NA,NA,NA,NA,Low
Exp3,P112_Exp3,NA,18,F,3,14,56,11,3,15,1,905.046461724851,254,177,523,174,0,230,217,9,4,272,251,0,34,0,34,17,Low,NA,NA,NA,NA,Low
Exp3,P112_Exp3,NA,18,F,3,15,57,10,2,14,1,2024.31465226255,200,94,1634,33,0,410,216,7,5,608,251,0,0,0,0,17,Low,NA,NA,NA,NA,Low
Exp3,P112_Exp3,NA,18,F,3,15,58,12,4,16,1,2342.59381818993,331,0,1844,427,0,164,203,11,4,704,250,0,38,0,35,17,Low,NA,NA,NA,NA,Low
Exp3,P112_Exp3,NA,18,F,3,15,59,11,3,15,1,962.959367134317,180,53,655,220,0,363,30,4,4,289,249,0,0,0,0,17,Low,NA,NA,NA,NA,Low
Exp3,P112_Exp3,NA,18,F,3,15,60,9,1,13,1,1062.32826921405,582,0,343,270,0,404,116,7,4,319,249,0,0,0,0,17,Low,NA,NA,NA,NA,Low
Exp3,P112_Exp3,NA,18,F,3,16,61,10,2,14,1,832.798096602346,162,0,586,50,0,270,197,4,3,250,254,0,51,0,47,17,Low,NA,NA,NA,NA,Low
Exp3,P112_Exp3,NA,18,F,3,16,62,11,3,15,1,2094.51121796155,396,160,1504,156,0,404,190,8,4,629,249,0,0,0,0,17,Low,NA,NA,NA,NA,Low
Exp3,P112_Exp3,NA,18,F,3,16,63,12,4,16,1,851.81726713563,358,0,317,366,0,286,203,9,3,256,252,0,30,0,30,17,Low,NA,NA,NA,NA,Low
Exp3,P112_Exp3,NA,18,F,3,16,64,9,1,13,1,601.491707926471,134,0,346,469,0,244,216,4,4,181,252,0,0,0,0,17,Low,NA,NA,NA,NA,Low
Exp3,P112_Exp3,NA,18,F,3,17,65,11,3,15,1,1291.67301101188,180,144,960,287,0,227,200,6,6,388,251,0,0,0,0,17,Low,NA,NA,NA,NA,Low
Exp3,P112_Exp3,NA,18,F,3,17,66,10,2,14,1,946.138230076031,308,199,517,0,0,170,183,4,7,285,249,0,48,0,46,17,Low,NA,NA,NA,NA,Low
Exp3,P112_Exp3,NA,18,F,3,17,67,9,1,13,1,981.197316166799,276,64,431,0,0,577,3,7,4,294,254,0,0,0,0,17,Low,NA,NA,NA,NA,Low
Exp3,P112_Exp3,NA,18,F,3,17,68,12,4,16,1,829.457929972705,290,120,390,0,0,206,187,8,5,249,249,0,32,0,32,17,Low,NA,NA,NA,NA,Low
Exp3,P112_Exp3,NA,18,F,3,18,69,11,3,15,1,1610.21087552945,571,226,693,50,0,110,237,8,6,484,250,0,55,0,53,17,Low,NA,NA,NA,NA,Low
Exp3,P112_Exp3,NA,18,F,3,18,70,9,1,13,1,940.241530410276,347,231,424,0,0,406,37,8,4,283,251,0,0,0,0,17,Low,NA,NA,NA,NA,Low
Exp3,P112_Exp3,NA,18,F,3,18,71,12,4,16,1,934.366539720941,254,181,423,44,0,240,86,8,5,280,253,0,60,0,55,17,Low,NA,NA,NA,NA,Low
Exp3,P112_Exp3,NA,18,F,3,18,72,10,2,14,1,808.613396668079,153,39,447,207,0,387,260,4,4,243,250,0,0,0,0,17,Low,NA,NA,NA,NA,Low
Exp3,P113_Exp3,NA,18,F,1,1,1,3,3,7,1,3353.49998732272,1094,0,1578,200,0,544,250,18,3,1006,252,26,0,26,0,11,Low,NA,NA,NA,NA,Low
Exp3,P113_Exp3,NA,18,F,1,1,2,4,4,8,3,4624.81330060473,1036,0,2909,197,167,380,250,11,3,1388,246,56,24,56,0,11,Low,NA,NA,NA,NA,Low
Exp3,P113_Exp3,NA,18,F,1,1,3,2,2,6,3,5023.87820377407,460,0,3693,177,160,546,246,21,3,1507,246,35,0,35,0,11,Low,NA,NA,NA,NA,Low
Exp3,P113_Exp3,NA,18,F,1,1,4,1,1,5,2,3471.81337184156,0,0,2747,282,137,343,214,13,5,1042,252,33,0,33,0,11,Low,NA,NA,NA,NA,Low
Exp3,P113_Exp3,NA,18,F,1,2,5,2,2,6,3,5933.96546498843,486,0,4805,193,0,594,229,20,3,1780,254,19,0,0,0,11,Low,NA,NA,NA,NA,Low
Exp3,P113_Exp3,NA,18,F,1,2,6,1,1,5,1,1864.3502861014,587,0,741,520,63,190,224,8,3,560,249,13,0,0,0,11,Low,NA,NA,NA,NA,Low
Exp3,P113_Exp3,NA,18,F,1,2,7,4,4,8,1,2742.72702465169,540,0,1777,330,0,177,216,11,3,822,251,0,59,0,59,11,Low,NA,NA,NA,NA,Low
Exp3,P113_Exp3,NA,18,F,1,2,8,3,3,7,1,1617.61941214718,444,64,1037,457,0,147,263,5,4,485,253,0,0,0,0,11,Low,NA,NA,NA,NA,Low
Exp3,P113_Exp3,NA,18,F,1,3,9,2,2,6,1,3089.36426214495,204,0,2302,516,0,170,233,12,3,927,252,32,0,32,0,11,Low,NA,NA,NA,NA,Low
Exp3,P113_Exp3,NA,18,F,1,3,10,3,3,7,2,3495.2300341829,439,0,2505,527,0,64,266,15,3,1048,245,0,36,0,36,11,Low,NA,NA,NA,NA,Low
Exp3,P113_Exp3,NA,18,F,1,3,11,4,4,8,1,1876.70625438477,277,0,1296,207,0,543,270,8,3,563,250,0,0,0,0,11,Low,NA,NA,NA,NA,Low
Exp3,P113_Exp3,NA,18,F,1,3,12,1,1,5,1,1745.40360274113,366,167,955,320,37,176,240,7,4,524,250,30,0,30,0,11,Low,NA,NA,NA,NA,Low
Exp3,P113_Exp3,NA,18,F,1,4,13,3,3,7,1,3227.90125126267,609,329,2137,403,0,0,NA,11,3,968,250,60,0,53,0,11,Low,NA,NA,NA,NA,Low
Exp3,P113_Exp3,NA,18,F,1,4,14,4,4,8,1,1699.40280342053,246,380,1160,336,0,0,NA,6,3,510,253,0,0,0,0,11,Low,NA,NA,NA,NA,Low
Exp3,P113_Exp3,NA,18,F,1,4,15,2,2,6,2,2895.83894286625,669,0,1747,333,0,0,NA,12,3,869,245,27,46,27,40,11,Low,NA,NA,NA,NA,Low
Exp3,P113_Exp3,NA,18,F,1,4,16,1,1,5,1,1213.33869836235,313,0,700,167,0,273,227,6,3,364,250,0,0,0,0,11,Low,NA,NA,NA,NA,Low
Exp3,P113_Exp3,NA,18,F,1,5,17,4,4,8,1,1825.05164796385,340,752,1049,0,0,0,NA,8,3,547,251,34,0,34,0,11,Low,NA,NA,NA,NA,Low
Exp3,P113_Exp3,NA,18,F,1,5,18,3,3,7,1,1328.71258616433,260,427,752,280,0,0,NA,4,3,399,249,34,0,34,0,11,Low,NA,NA,NA,NA,Low
Exp3,P113_Exp3,NA,18,F,1,5,19,1,1,5,3,4996.64454246158,223,420,3835,254,0,0,NA,17,5,1499,245,76,0,53,0,11,Low,NA,NA,NA,NA,Low
Exp3,P113_Exp3,NA,18,F,1,5,20,2,2,6,3,4891.98240045152,709,236,3350,87,0,377,300,18,3,1467,246,40,0,26,0,11,Low,NA,NA,NA,NA,Low
Exp3,P113_Exp3,NA,18,F,1,6,21,3,3,7,1,2052.98731108269,797,310,839,453,0,0,NA,6,3,616,253,59,0,54,0,11,Low,NA,NA,NA,NA,Low
Exp3,P113_Exp3,NA,18,F,1,6,22,4,4,8,1,1123.21918660018,322,514,667,170,0,0,NA,3,4,337,252,0,0,0,0,11,Low,NA,NA,NA,NA,Low
Exp3,P113_Exp3,NA,18,F,1,6,23,1,1,5,1,1024.02279392845,223,320,679,235,0,0,NA,4,6,307,251,0,52,0,49,11,Low,NA,NA,NA,NA,Low
Exp3,P113_Exp3,NA,18,F,1,6,24,2,2,6,1,2126.88374709978,851,316,972,193,0,166,251,9,4,638,250,0,0,0,0,11,Low,NA,NA,NA,NA,Low
Exp3,P113_Exp3,NA,18,F,2,7,25,5,1,9,1,3349.56918774697,1433,0,1529,190,0,527,250,13,3,1005,254,0,0,0,0,11,Low,NA,NA,NA,NA,Low
Exp3,P113_Exp3,NA,18,F,2,7,26,7,3,11,1,1399.66922360691,586,0,683,170,0,577,247,5,4,420,253,0,0,0,0,11,Low,NA,NA,NA,NA,Low
Exp3,P113_Exp3,NA,18,F,2,7,27,6,2,10,1,1281.06514948377,373,260,600,190,136,247,234,6,5,384,249,0,0,0,0,11,Low,NA,NA,NA,NA,Low
Exp3,P113_Exp3,NA,18,F,2,7,28,8,4,12,1,868.813261964533,456,0,301,206,0,490,224,4,4,261,253,0,0,0,0,11,Low,NA,NA,NA,NA,Low
Exp3,P113_Exp3,NA,18,F,2,8,29,7,3,11,1,1626.81160295324,293,54,1021,154,0,203,210,8,3,488,250,0,92,0,88,11,Low,NA,NA,NA,NA,Low
Exp3,P113_Exp3,NA,18,F,2,8,30,8,4,12,1,1586.55848868148,280,133,765,196,0,163,217,6,4,476,252,0,58,0,55,11,Low,NA,NA,NA,NA,Low
Exp3,P113_Exp3,NA,18,F,2,8,31,5,1,9,1,2643.67371284607,692,0,1460,473,0,227,214,12,4,793,251,0,0,0,0,11,Low,NA,NA,NA,NA,Low
Exp3,P113_Exp3,NA,18,F,2,8,32,6,2,10,1,570.484832827788,270,0,193,386,0,159,440,4,3,171,253,0,37,0,35,11,Low,NA,NA,NA,NA,Low
Exp3,P113_Exp3,NA,18,F,2,9,33,5,1,9,2,3821.89511508841,817,0,2439,150,0,173,224,12,3,1146,252,27,52,27,52,11,Low,NA,NA,NA,NA,Low
Exp3,P113_Exp3,NA,18,F,2,9,34,7,3,11,1,998.245599206712,300,0,483,640,0,0,NA,5,3,299,254,0,34,0,31,11,Low,NA,NA,NA,NA,Low
Exp3,P113_Exp3,NA,18,F,2,9,35,6,2,10,1,782.675563841622,210,540,439,240,0,0,NA,4,3,235,254,0,0,0,0,11,Low,NA,NA,NA,NA,Low
Exp3,P113_Exp3,NA,18,F,2,9,36,8,4,12,1,1318.87472032759,557,0,610,641,0,0,NA,5,3,396,253,0,32,0,32,11,Low,NA,NA,NA,NA,Low
Exp3,P113_Exp3,NA,18,F,2,10,37,7,3,11,1,1051.14778623101,323,343,563,224,0,0,NA,6,2,315,253,0,61,0,60,11,Low,NA,NA,NA,NA,Low
Exp3,P113_Exp3,NA,18,F,2,10,38,8,4,12,1,1064.53520453215,390,130,536,409,0,0,NA,4,3,319,254,0,54,0,52,11,Low,NA,NA,NA,NA,Low
Exp3,P113_Exp3,NA,18,F,2,10,39,5,1,9,2,2087.36475236219,270,0,1292,406,0,180,370,6,5,626,247,58,22,58,0,11,Low,NA,NA,NA,NA,Low
Exp3,P113_Exp3,NA,18,F,2,10,40,6,2,10,1,396.927745976427,137,0,203,750,0,0,NA,2,2,119,244,0,0,0,0,11,Low,NA,NA,NA,NA,Low
Exp3,P113_Exp3,NA,18,F,2,11,41,5,1,9,1,888.702709358768,280,0,463,533,0,0,NA,4,2,267,252,0,69,0,62,11,Low,NA,NA,NA,NA,Low
Exp3,P113_Exp3,NA,18,F,2,11,42,6,2,10,1,653.814946337661,166,497,400,250,0,0,NA,3,3,197,252,0,0,0,0,11,Low,NA,NA,NA,NA,Low
Exp3,P113_Exp3,NA,18,F,2,11,43,8,4,12,1,948.342374995264,329,0,549,520,0,0,NA,3,3,284,254,0,70,0,62,11,Low,NA,NA,NA,NA,Low
Exp3,P113_Exp3,NA,18,F,2,11,44,7,3,11,1,533.733275537088,60,243,360,74,0,377,333,3,6,160,253,0,0,0,0,11,Low,NA,NA,NA,NA,Low
Exp3,P113_Exp3,NA,18,F,2,12,45,8,4,12,1,1211.04457481852,313,362,588,0,0,0,NA,5,3,363,250,26,76,26,71,11,Low,NA,NA,NA,NA,Low
Exp3,P113_Exp3,NA,18,F,2,12,46,7,3,11,1,723.483252295409,314,300,327,413,0,0,NA,4,4,217,252,0,0,0,0,11,Low,NA,NA,NA,NA,Low
Exp3,P113_Exp3,NA,18,F,2,12,47,6,2,10,1,655.265375760791,313,500,250,244,0,0,NA,3,2,197,252,0,0,0,0,11,Low,NA,NA,NA,NA,Low
Exp3,P113_Exp3,NA,18,F,2,12,48,5,1,9,1,606.775452393777,237,0,226,277,0,463,260,3,4,182,252,0,0,0,0,11,Low,NA,NA,NA,NA,Low
Exp3,P113_Exp3,NA,18,F,3,13,49,12,4,16,1,1407.42124817189,432,73,776,136,0,326,194,6,5,422,252,0,0,0,0,11,Low,NA,NA,NA,NA,Low
Exp3,P113_Exp3,NA,18,F,3,13,50,9,1,13,1,894.797531524091,364,247,406,130,0,133,213,5,4,269,250,0,30,0,30,11,Low,NA,NA,NA,NA,Low
Exp3,P113_Exp3,NA,18,F,3,13,51,11,3,15,1,1140.94400768954,353,300,673,150,0,217,206,4,4,342,251,0,0,0,0,11,Low,NA,NA,NA,NA,Low
Exp3,P113_Exp3,NA,18,F,3,13,52,10,2,14,1,679.01257300764,283,0,320,130,0,629,170,3,4,203,250,0,0,0,0,11,Low,NA,NA,NA,NA,Low
Exp3,P113_Exp3,NA,18,F,3,14,53,9,1,13,1,1310.81842253843,388,0,598,0,0,761,27,6,3,393,250,20,0,0,0,11,Low,NA,NA,NA,NA,Low
Exp3,P113_Exp3,NA,18,F,3,14,54,12,4,16,1,1241.21894028576,270,0,670,130,40,473,3,6,5,373,251,0,0,0,0,11,Low,NA,NA,NA,NA,Low
Exp3,P113_Exp3,NA,18,F,3,14,55,10,2,14,2,1832.3590351647,453,0,680,388,327,334,230,8,4,550,249,25,0,0,0,11,Low,NA,NA,NA,NA,Low
Exp3,P113_Exp3,NA,18,F,3,14,56,11,3,15,1,648.044320052577,0,0,640,137,0,657,174,1,3,194,254,0,0,0,0,11,Low,NA,NA,NA,NA,Low
Exp3,P113_Exp3,NA,18,F,3,15,57,9,1,13,1,1023.35266836599,263,0,514,200,40,360,383,5,3,307,251,0,35,0,28,11,Low,NA,NA,NA,NA,Low
Exp3,P113_Exp3,NA,18,F,3,15,58,11,3,15,1,1246.16609695659,380,0,734,117,0,590,4,4,4,374,249,0,0,0,0,11,Low,NA,NA,NA,NA,Low
Exp3,P113_Exp3,NA,18,F,3,15,59,10,2,14,1,1366.32926951279,597,0,507,283,0,297,213,6,5,410,254,0,38,0,38,11,Low,NA,NA,NA,NA,Low
Exp3,P113_Exp3,NA,18,F,3,15,60,12,4,16,1,942.972616616316,350,0,450,0,0,570,30,4,3,283,251,0,0,0,0,11,Low,NA,NA,NA,NA,Low
Exp3,P113_Exp3,NA,18,F,3,16,61,10,2,14,1,4341.12107780311,1654,0,2069,400,0,304,220,12,4,1302,251,45,0,40,0,11,Low,NA,NA,NA,NA,Low
Exp3,P113_Exp3,NA,18,F,3,16,62,11,3,15,1,536.71201383986,247,0,184,170,0,386,213,3,4,161,252,0,0,0,0,11,Low,NA,NA,NA,NA,Low
Exp3,P113_Exp3,NA,18,F,3,16,63,12,4,16,1,842.890873373108,227,0,336,130,0,411,197,4,4,253,251,0,0,0,0,11,Low,NA,NA,NA,NA,Low
Exp3,P113_Exp3,NA,18,F,3,16,64,9,1,13,1,747.034241605434,246,0,337,394,0,259,97,4,5,224,250,0,0,0,0,11,Low,NA,NA,NA,NA,Low
Exp3,P113_Exp3,NA,18,F,3,17,65,12,4,16,1,1919.06543444202,273,0,916,0,0,601,176,8,4,575,253,26,0,0,0,11,Low,NA,NA,NA,NA,Low
Exp3,P113_Exp3,NA,18,F,3,17,66,11,3,15,1,1473.77333818076,340,0,836,190,0,486,203,9,5,442,251,0,0,0,0,11,Low,NA,NA,NA,NA,Low
Exp3,P113_Exp3,NA,18,F,3,17,67,9,1,13,1,1087.47553437934,310,0,586,340,0,414,3,6,3,326,252,0,0,0,0,11,Low,NA,NA,NA,NA,Low
Exp3,P113_Exp3,NA,18,F,3,17,68,10,2,14,1,676.564501700341,146,0,243,193,0,517,36,3,4,203,251,57,0,57,0,11,Low,NA,NA,NA,NA,Low
Exp3,P113_Exp3,NA,18,F,3,18,69,11,3,15,1,1348.22139016615,779,210,360,0,0,500,24,4,4,405,254,0,0,0,0,11,Low,NA,NA,NA,NA,Low
Exp3,P113_Exp3,NA,18,F,3,18,70,10,2,14,1,1807.69750894251,1244,0,216,160,0,564,214,8,4,542,251,30,0,30,0,11,Low,NA,NA,NA,NA,Low
Exp3,P113_Exp3,NA,18,F,3,18,71,12,4,16,1,1054.961766622,376,0,470,0,0,347,40,3,2,316,252,0,110,0,110,11,Low,NA,NA,NA,NA,Low
Exp3,P113_Exp3,NA,18,F,3,18,72,9,1,13,1,741.414846357657,240,0,323,90,0,650,137,4,4,222,251,0,0,0,0,11,Low,NA,NA,NA,NA,Low
Exp3,P114_Exp3,NA,20,M,1,1,1,1,1,5,4,16811.7726997079,5006,0,9267,0,0,613,170,50,4,5044,245,56,0,51,0,23,High,NA,NA,NA,NA,High
Exp3,P114_Exp3,NA,20,M,1,1,2,4,4,8,4,11152.4037754789,1607,0,5305,0,419,550,4,36,3,3346,248,57,0,57,0,23,High,NA,NA,NA,NA,High
Exp3,P114_Exp3,NA,20,M,1,1,3,2,2,6,1,3577.5077116341,1386,173,1599,130,0,417,166,12,4,1074,250,35,0,33,0,23,High,NA,NA,NA,NA,High
Exp3,P114_Exp3,NA,20,M,1,1,4,3,3,7,2,3875.181527932,1060,0,1893,120,0,200,283,10,4,1162,246,202,0,199,0,23,High,NA,NA,NA,NA,High
Exp3,P114_Exp3,NA,20,M,1,2,5,4,4,8,4,6578.2363891376,127,173,3817,0,0,146,377,24,4,1974,250,0,0,0,0,23,High,NA,NA,NA,NA,High
