subj,condition,age,sex,phase,block,trial,cue,resp,out,numResp,RT,AOI_cue_p1,AOI_cue_p2,AOI_resp_p1,AOI_resp_p2,AOI_out_p1,AOI_out_p2,tOutFix,nFix_p1,nFix_p2,samples_p1,samples_p2,raw_NA_p1,raw_NA_p2,post_interp_NA_p1,post_interp_NA_p2,ICU,ICU_medSplit
P101_Exp6,C1,19,F,1,1,1,1,1,5,2,5142.12034972104,710,0,3646,173,0,607,213,14,5,1543,812,0,0,0,0,21,Low
P101_Exp6,C1,19,F,1,1,2,2,2,6,1,2423.6352681649,943,160,1193,0,0,416,387,9,4,727,812,43,0,43,0,21,Low
P101_Exp6,C1,19,F,1,1,3,3,3,7,1,3072.37597545526,623,184,2201,184,0,347,216,9,3,921,812,20,0,0,0,21,Low
P101_Exp6,C1,19,F,1,1,4,4,4,8,1,1829.8925504979,593,260,1080,0,0,0,NA,6,1,549,810,7,0,0,0,21,Low
P101_Exp6,C1,19,F,1,2,5,2,2,6,1,1671.65447360128,564,280,770,0,120,303,367,6,6,502,812,0,34,0,34,21,Low
P101_Exp6,C1,19,F,1,2,6,4,4,8,1,2102.40122288855,200,0,1217,180,0,646,214,4,2,630,813,160,0,160,0,21,Low
P101_Exp6,C1,19,F,1,2,7,1,1,5,2,3603.81210886703,1303,180,1330,0,0,0,NA,11,3,1081,813,42,39,39,35,21,Low
P101_Exp6,C1,19,F,1,2,8,3,3,7,1,1747.96849323172,420,0,1022,147,0,0,NA,5,2,524,809,30,71,30,71,21,Low
P101_Exp6,C1,19,F,1,3,9,2,2,6,1,1471.90121262543,563,0,811,57,0,370,240,8,4,441,812,0,359,0,353,21,Low
P101_Exp6,C1,19,F,1,3,10,4,4,8,1,1637.66642960724,307,400,914,0,0,0,NA,4,4,491,813,40,0,36,0,21,Low
P101_Exp6,C1,19,F,1,3,11,3,3,7,1,1245.72930791123,460,0,310,27,0,726,57,5,2,374,810,6,108,0,108,21,Low
P101_Exp6,C1,19,F,1,3,12,1,1,5,1,1221.85019856244,184,0,783,163,0,680,196,3,2,366,812,52,0,52,0,21,Low
P101_Exp6,C1,19,F,1,4,13,2,2,6,1,1711.91785105827,480,0,857,107,0,303,263,7,9,514,810,39,0,39,0,21,Low
P101_Exp6,C1,19,F,1,4,14,3,3,7,1,980.288950897261,303,80,33,0,0,370,284,7,4,294,809,24,68,0,68,21,Low
P101_Exp6,C1,19,F,1,4,15,1,1,5,1,2358.18935695715,193,0,1864,409,0,287,180,6,6,708,811,0,301,0,298,21,Low
P101_Exp6,C1,19,F,1,4,16,4,4,8,1,6281.72803044663,897,137,3098,247,0,196,314,24,4,1884,810,480,213,447,195,21,Low
P101_Exp6,C1,19,F,1,5,17,1,1,5,1,2180.05821036633,497,0,1320,424,0,0,NA,5,1,654,810,85,0,82,0,21,Low
P101_Exp6,C1,19,F,1,5,18,2,2,6,1,783.788515617573,137,0,593,377,0,340,210,5,5,236,813,0,75,0,75,21,Low
P101_Exp6,C1,19,F,1,5,19,3,3,7,1,1063.95201418007,466,13,167,64,0,550,256,4,6,319,809,0,88,0,88,21,Low
P101_Exp6,C1,19,F,1,5,20,4,4,8,1,2176.47032188967,753,0,650,196,0,566,234,4,2,653,811,146,0,142,0,21,Low
P101_Exp6,C1,19,F,1,6,21,2,2,6,2,3611.20492198171,917,0,1796,0,0,390,193,7,2,1083,811,30,64,29,60,21,Low
P101_Exp6,C1,19,F,1,6,22,4,4,8,1,2884.39669984291,0,0,1905,638,0,220,277,9,5,865,813,62,0,54,0,21,Low
P101_Exp6,C1,19,F,1,6,23,3,3,7,1,1600.29636453868,343,0,774,789,0,0,NA,7,10,480,814,33,0,29,0,21,Low
P101_Exp6,C1,19,F,1,6,24,1,1,5,1,1433.71069653216,317,0,824,433,0,357,479,6,2,431,813,0,0,0,0,21,Low
P101_Exp6,C1,19,F,2,7,25,6,2,10,1,4299.62581637591,1426,0,2594,170,0,0,NA,11,2,1290,813,9,0,0,0,21,Low
P101_Exp6,C1,19,F,2,7,26,8,4,12,2,3656.0384350214,950,33,2294,146,0,150,243,9,3,1097,807,29,0,0,0,21,Low
P101_Exp6,C1,19,F,2,7,27,5,1,9,1,1765.82884872437,314,0,1153,190,0,336,220,5,4,530,813,13,0,0,0,21,Low
P101_Exp6,C1,19,F,2,7,28,7,3,11,1,1201.48894655051,390,0,650,124,0,0,NA,7,2,361,811,0,95,0,94,21,Low
P101_Exp6,C1,19,F,2,8,29,8,4,12,3,6730.97084893448,1132,291,3692,157,0,414,183,25,4,2019,802,0,53,0,53,21,Low
P101_Exp6,C1,19,F,2,8,30,5,1,9,1,1495.51861077532,300,0,889,70,0,500,213,4,3,448,810,49,48,49,48,21,Low
P101_Exp6,C1,19,F,2,8,31,6,2,10,1,1077.65366703575,186,257,754,100,0,376,254,4,4,323,811,0,0,0,0,21,Low
P101_Exp6,C1,19,F,2,8,32,7,3,11,1,1195.4904172045,216,0,616,107,0,270,157,10,6,359,810,0,345,0,345,21,Low
P101_Exp6,C1,19,F,2,9,33,5,1,9,1,1214.3710539566,0,0,993,391,0,177,173,3,6,364,810,0,145,0,145,21,Low
P101_Exp6,C1,19,F,2,9,34,8,4,12,1,3005.94208183259,336,167,2520,150,0,463,184,11,3,902,812,0,142,0,142,21,Low
P101_Exp6,C1,19,F,2,9,35,6,2,10,1,1456.12549097257,260,0,416,174,0,303,210,6,3,437,812,0,61,0,60,21,Low
P101_Exp6,C1,19,F,2,9,36,7,3,11,1,1503.53174282156,267,0,417,89,0,576,144,6,10,451,813,172,140,164,140,21,Low
P101_Exp6,C1,19,F,2,10,37,6,2,10,1,1621.70687621278,544,0,740,33,0,203,237,8,8,486,813,0,158,0,148,21,Low
P101_Exp6,C1,19,F,2,10,38,7,3,11,1,3334.57437367406,1200,0,929,130,0,340,203,16,8,1001,813,127,501,125,498,21,Low
P101_Exp6,C1,19,F,2,10,39,5,1,9,1,4904.51193729075,1122,24,2496,184,0,384,213,22,4,1471,813,116,259,110,225,21,Low
P101_Exp6,C1,19,F,2,10,40,8,4,12,1,2382.44729854875,653,0,1224,310,0,583,124,8,4,714,814,11,199,0,199,21,Low
P101_Exp6,C1,19,F,2,11,41,7,3,11,1,3320.28621002337,604,0,2312,126,0,320,166,17,3,997,812,0,245,0,239,21,Low
P101_Exp6,C1,19,F,2,11,42,8,4,12,1,1747.89333049989,0,0,880,206,0,206,194,6,5,524,810,0,74,0,74,21,Low
P101_Exp6,C1,19,F,2,11,43,5,1,9,1,3552.04581485452,773,0,2169,323,0,0,NA,12,1,1066,812,95,233,95,232,21,Low
P101_Exp6,C1,19,F,2,11,44,6,2,10,1,1074.03559272302,164,0,833,286,0,364,123,4,8,322,809,0,269,0,268,21,Low
P101_Exp6,C1,19,F,2,12,45,5,1,9,1,2164.06243396852,560,0,1044,0,0,477,123,6,3,650,807,73,163,68,140,21,Low
P101_Exp6,C1,19,F,2,12,46,7,3,11,1,2046.42641960959,813,0,853,90,0,0,NA,6,2,614,810,57,79,57,78,21,Low
P101_Exp6,C1,19,F,2,12,47,8,4,12,1,2862.51830770959,617,0,2106,77,0,730,110,11,3,859,810,0,0,0,0,21,Low
P101_Exp6,C1,19,F,2,12,48,6,2,10,1,1724.79422315553,313,0,494,0,0,96,213,7,6,517,812,133,259,133,249,21,Low
P101_Exp6,C1,19,F,3,13,49,11,3,15,2,5769.90423845359,1516,0,3498,110,0,0,NA,24,2,1731,813,0,1,0,0,21,Low
P101_Exp6,C1,19,F,3,13,50,10,2,14,1,1706.45059242725,163,0,691,117,0,280,236,10,4,512,810,67,140,67,110,21,Low
P101_Exp6,C1,19,F,3,13,51,12,4,16,1,1471.79133618204,460,180,892,90,0,471,116,7,4,442,812,0,0,0,0,21,Low
P101_Exp6,C1,19,F,3,13,52,9,1,13,1,2607.63454129005,294,0,1484,114,0,454,280,5,3,782,812,223,200,218,200,21,Low
P101_Exp6,C1,19,F,3,14,53,10,2,14,2,2994.87746361694,586,213,1720,110,0,447,130,12,3,898,805,0,0,0,0,21,Low
P101_Exp6,C1,19,F,3,14,54,11,3,15,1,1508.4155092411,440,0,736,0,0,417,156,5,5,453,811,26,91,26,91,21,Low
P101_Exp6,C1,19,F,3,14,55,9,1,13,1,2017.87937256927,443,150,1400,134,0,410,163,6,4,605,813,6,102,0,84,21,Low
P101_Exp6,C1,19,F,3,14,56,12,4,16,1,1361.50738405922,509,0,803,269,0,387,276,2,6,409,810,0,173,0,173,21,Low
P101_Exp6,C1,19,F,3,15,57,9,1,13,1,2087.77558159056,283,0,1373,173,0,466,214,5,5,626,812,74,137,74,136,21,Low
P101_Exp6,C1,19,F,3,15,58,12,4,16,1,2507.78673827551,450,0,1289,277,0,540,137,7,5,753,811,144,66,143,64,21,Low
P101_Exp6,C1,19,F,3,15,59,11,3,15,2,5945.26945688438,843,0,4109,147,0,247,183,22,10,1783,806,0,92,0,91,21,Low
P101_Exp6,C1,19,F,3,15,60,10,2,14,1,1059.61310210182,253,0,469,160,0,323,194,6,4,318,811,70,142,70,142,21,Low
P101_Exp6,C1,19,F,3,16,61,12,4,16,1,2017.67018472526,424,0,1208,60,0,480,260,6,4,605,814,74,206,74,197,21,Low
P101_Exp6,C1,19,F,3,16,62,11,3,15,1,2522.40151267267,437,0,1105,103,0,623,214,9,4,757,812,106,233,103,233,21,Low
P101_Exp6,C1,19,F,3,16,63,9,1,13,1,2286.02528607109,390,0,893,44,0,730,73,5,3,686,813,159,82,159,77,21,Low
P101_Exp6,C1,19,F,3,16,64,10,2,14,1,3188.08371860518,906,143,1430,0,0,323,167,11,5,957,810,0,360,0,358,21,Low
P101_Exp6,C1,19,F,3,17,65,12,4,16,1,1913.71680614532,533,234,1057,306,0,0,NA,5,8,574,810,3,237,0,235,21,Low
P101_Exp6,C1,19,F,3,17,66,9,1,13,1,3014.12153783554,453,0,2450,567,0,307,313,6,5,905,809,0,187,0,179,21,Low
P101_Exp6,C1,19,F,3,17,67,11,3,15,1,4406.48367610356,1374,0,1034,237,0,287,183,19,9,1322,812,63,0,57,0,21,Low
P101_Exp6,C1,19,F,3,17,68,10,2,14,1,1416.44470015194,346,0,190,247,0,447,116,3,7,425,813,198,269,198,264,21,Low
P101_Exp6,C1,19,F,3,18,69,11,3,15,1,4242.16647367859,1081,150,2244,297,0,250,167,27,6,1273,811,49,0,49,0,21,Low
P101_Exp6,C1,19,F,3,18,70,10,2,14,1,1857.77369799428,210,0,830,27,0,0,NA,5,4,557,812,73,150,65,145,21,Low
P101_Exp6,C1,19,F,3,18,71,9,1,13,1,2736.25306839017,187,0,2202,297,0,207,220,10,19,821,813,0,93,0,77,21,Low
P101_Exp6,C1,19,F,3,18,72,12,4,16,1,1828.15746863992,344,0,1034,74,0,43,400,6,9,548,808,2,256,0,253,21,Low
P102_Exp6,C1,22,F,1,1,1,3,3,7,2,6228.37939490637,1707,0,3033,366,0,187,207,27,7,1868,806,107,20,90,0,21,Low
P102_Exp6,C1,22,F,1,1,2,2,2,6,1,2995.82348772128,337,260,2186,27,0,264,193,10,6,898,811,26,42,26,31,21,Low
P102_Exp6,C1,22,F,1,1,3,4,4,8,1,2309.62547829404,670,184,1070,256,0,34,283,10,7,693,811,7,73,0,46,21,Low
P102_Exp6,C1,22,F,1,1,4,1,1,5,2,3441.10079292295,570,0,2323,297,0,260,217,10,4,1032,811,31,84,27,60,21,Low
P102_Exp6,C1,22,F,1,2,5,2,2,6,1,1318.06634363966,304,164,750,94,0,190,290,6,5,396,813,0,192,0,179,21,Low
P102_Exp6,C1,22,F,1,2,6,4,4,8,1,1721.85895245457,369,0,977,193,0,660,236,7,3,516,812,0,24,0,0,21,Low
P102_Exp6,C1,22,F,1,2,7,1,1,5,1,1429.51305416682,230,157,0,0,0,493,206,5,5,429,810,16,114,0,102,21,Low
P102_Exp6,C1,22,F,1,2,8,3,3,7,1,1094.34884925577,353,94,466,103,0,547,147,4,4,328,810,0,125,0,118,21,Low
P102_Exp6,C1,22,F,1,3,9,4,4,8,1,2949.8601188352,1203,0,1129,0,0,427,53,10,4,885,814,71,153,66,146,21,Low
P102_Exp6,C1,22,F,1,3,10,2,2,6,1,1114.05567234215,256,0,549,30,0,0,NA,6,2,334,809,0,285,0,270,21,Low
P102_Exp6,C1,22,F,1,3,11,3,3,7,1,1055.50873396896,260,0,543,223,0,197,286,3,4,317,812,12,649,0,649,21,Low
P102_Exp6,C1,22,F,1,3,12,1,1,5,1,1070.0124244886,197,NA,63,NA,0,NA,NA,2,NA,321,812,216,449,190,379,21,Low
P102_Exp6,C1,22,F,1,4,13,4,4,8,1,1069.75493930804,176,0,591,302,0,267,247,5,5,321,813,0,33,0,0,21,Low
P102_Exp6,C1,22,F,1,4,14,1,1,5,1,1195.57191896274,607,0,483,196,0,219,231,4,4,359,809,0,170,0,159,21,Low
P102_Exp6,C1,22,F,1,4,15,3,3,7,1,997.672068322572,330,0,576,143,0,0,NA,3,1,300,809,0,448,0,437,21,Low
P102_Exp6,C1,22,F,1,4,16,2,2,6,1,791.842700400593,233,0,480,0,0,230,16,3,2,237,811,0,222,0,221,21,Low
P102_Exp6,C1,22,F,1,5,17,1,1,5,1,1107.79301692855,347,0,628,84,0,224,290,5,10,332,811,0,57,0,30,21,Low
P102_Exp6,C1,22,F,1,5,18,3,3,7,1,952.253251920411,306,0,571,176,0,417,223,4,5,286,813,0,100,0,77,21,Low
P102_Exp6,C1,22,F,1,5,19,2,2,6,1,723.732285443475,287,0,353,557,0,220,203,3,4,217,812,0,66,0,44,21,Low
P102_Exp6,C1,22,F,1,5,20,4,4,8,1,543.536729521293,263,0,198,434,0,398,243,3,5,163,810,0,95,0,91,21,Low
P102_Exp6,C1,22,F,1,6,21,2,2,6,1,995.553928203663,193,0,544,0,0,363,53,4,5,299,810,0,435,0,408,21,Low
P102_Exp6,C1,22,F,1,6,22,1,1,5,1,1733.73375851043,417,0,832,160,0,230,263,6,4,520,813,31,358,0,327,21,Low
P102_Exp6,C1,22,F,1,6,23,3,3,7,1,961.761790285891,357,0,560,193,0,176,243,3,6,289,810,0,70,0,65,21,Low
P102_Exp6,C1,22,F,1,6,24,4,4,8,1,340.214597146769,193,0,86,230,0,387,273,2,3,102,812,0,139,0,101,21,Low
P102_Exp6,C1,22,F,2,7,25,7,3,11,1,2158.39655253694,859,0,550,217,0,680,267,5,5,648,811,83,19,79,0,21,Low
P102_Exp6,C1,22,F,2,7,26,6,2,10,1,1239.69214069439,457,343,610,0,0,401,427,4,8,372,811,13,33,0,33,21,Low
P102_Exp6,C1,22,F,2,7,27,5,1,9,1,1399.87267614379,430,0,859,207,0,389,263,5,9,420,814,0,52,0,31,21,Low
P102_Exp6,C1,22,F,2,7,28,8,4,12,1,986.231032729847,408,254,444,0,0,271,343,5,8,296,813,0,95,0,71,21,Low
P102_Exp6,C1,22,F,2,8,29,5,1,9,1,1117.85123936897,379,0,500,166,0,437,214,5,8,335,813,0,38,0,0,21,Low
P102_Exp6,C1,22,F,2,8,30,6,2,10,1,906.716710756882,413,0,430,190,0,603,237,4,3,272,812,0,94,0,68,21,Low
P102_Exp6,C1,22,F,2,8,31,8,4,12,1,1296.21602433144,374,297,770,0,0,62,544,4,6,389,809,14,35,0,0,21,Low
P102_Exp6,C1,22,F,2,8,32,7,3,11,1,366.287311202541,186,0,130,67,0,593,103,3,7,110,814,0,65,0,54,21,Low
P102_Exp6,C1,22,F,2,9,33,8,4,12,2,2091.46610191056,434,216,1273,130,0,51,210,8,5,627,806,0,137,0,89,21,Low
P102_Exp6,C1,22,F,2,9,34,5,1,9,1,930.067567975129,387,220,467,63,0,352,107,4,6,279,810,0,115,0,109,21,Low
P102_Exp6,C1,22,F,2,9,35,7,3,11,1,989.890159778952,433,120,506,173,0,423,223,3,5,297,812,0,73,0,72,21,Low
P102_Exp6,C1,22,F,2,9,36,6,2,10,1,352.016051620012,247,0,40,217,0,417,256,3,4,105,813,0,547,0,547,21,Low
P102_Exp6,C1,22,F,2,10,37,7,3,11,1,971.749076012202,313,0,404,189,0,313,234,4,5,292,812,0,311,0,311,21,Low
P102_Exp6,C1,22,F,2,10,38,8,4,12,1,1181.62696826766,277,0,413,203,0,350,467,4,3,354,814,0,84,0,84,21,Low
P102_Exp6,C1,22,F,2,10,39,5,1,9,1,1055.73512774026,357,173,620,197,0,280,240,4,5,317,811,0,111,0,111,21,Low
P102_Exp6,C1,22,F,2,10,40,6,2,10,1,472.170772141908,180,0,253,170,0,406,213,2,6,142,812,0,40,0,40,21,Low
P102_Exp6,C1,22,F,2,11,41,5,1,9,1,933.585727170794,373,0,477,183,0,57,256,4,4,280,813,0,140,0,114,21,Low
P102_Exp6,C1,22,F,2,11,42,8,4,12,1,1055.78614180376,244,0,660,217,0,357,440,6,4,317,812,0,96,0,92,21,Low
P102_Exp6,C1,22,F,2,11,43,7,3,11,1,872.247202678409,483,0,233,473,0,84,290,4,4,262,812,29,140,29,140,21,Low
P102_Exp6,C1,22,F,2,11,44,6,2,10,1,614.029108804971,120,0,230,560,0,0,NA,6,2,184,809,0,90,0,85,21,Low
P102_Exp6,C1,22,F,2,12,45,8,4,12,1,1416.14978453435,827,63,497,220,0,143,204,4,6,425,814,0,122,0,121,21,Low
P102_Exp6,C1,22,F,2,12,46,6,2,10,1,1207.90071999181,416,133,686,147,0,280,186,4,6,362,811,0,135,0,132,21,Low
P102_Exp6,C1,22,F,2,12,47,7,3,11,1,906.338482232968,390,0,480,150,0,456,200,2,10,272,812,0,75,0,72,21,Low
P102_Exp6,C1,22,F,2,12,48,5,1,9,1,781.857527683314,563,166,154,104,0,191,390,3,6,235,814,0,102,0,100,21,Low
P102_Exp6,C1,22,F,3,13,49,10,2,14,1,1781.46692296468,1210,46,480,136,0,349,184,4,10,534,814,0,48,0,0,21,Low
P102_Exp6,C1,22,F,3,13,50,11,3,15,1,1015.55204460783,330,190,460,110,0,334,306,3,5,305,814,0,69,0,45,21,Low
P102_Exp6,C1,22,F,3,13,51,9,1,13,1,1230.40033663347,373,0,733,130,0,90,170,6,10,369,809,0,32,0,32,21,Low
P102_Exp6,C1,22,F,3,13,52,12,4,16,1,1792.16448141233,602,0,706,478,0,140,243,6,5,538,811,39,89,39,77,21,Low
P102_Exp6,C1,22,F,3,14,53,9,1,13,1,1386.36059033888,936,0,373,351,0,0,NA,3,3,416,812,0,26,0,26,21,Low
P102_Exp6,C1,22,F,3,14,54,11,3,15,1,1147.51757721206,316,0,456,439,0,410,360,4,4,344,810,36,44,36,37,21,Low
P102_Exp6,C1,22,F,3,14,55,12,4,16,1,1127.60941459965,681,0,146,267,0,136,510,4,3,339,810,0,267,0,226,21,Low
P102_Exp6,C1,22,F,3,14,56,10,2,14,1,828.376919667789,322,0,443,130,0,349,177,3,2,248,810,0,114,0,114,21,Low
P102_Exp6,C1,22,F,3,15,57,11,3,15,1,1355.72830574165,730,184,287,0,0,386,244,5,3,407,812,0,103,0,103,21,Low
P102_Exp6,C1,22,F,3,15,58,10,2,14,1,1422.15163432229,507,0,497,176,0,709,224,5,2,426,812,38,449,38,445,21,Low
P102_Exp6,C1,22,F,3,15,59,9,1,13,1,2277.96325297095,689,120,919,94,0,523,140,8,3,683,811,70,92,69,67,21,Low
P102_Exp6,C1,22,F,3,15,60,12,4,16,1,805.560653607245,317,0,413,57,0,743,107,4,2,241,812,0,30,0,28,21,Low
P102_Exp6,C1,22,F,3,16,61,10,2,14,1,1589.68634501434,953,0,300,33,0,387,87,3,4,477,812,69,136,69,107,21,Low
P102_Exp6,C1,22,F,3,16,62,9,1,13,1,941.744958663548,386,0,480,440,0,150,750,4,4,283,811,0,24,0,0,21,Low
P102_Exp6,C1,22,F,3,16,63,12,4,16,1,1329.90462483212,643,0,243,226,40,383,4,5,3,399,809,0,432,0,432,21,Low
P102_Exp6,C1,22,F,3,16,64,11,3,15,1,775.626869257394,370,0,0,0,0,334,303,4,4,233,811,0,416,0,403,21,Low
P102_Exp6,C1,22,F,3,17,65,12,4,16,1,890.371080520708,416,0,243,247,0,0,NA,4,4,267,811,0,353,0,351,21,Low
P102_Exp6,C1,22,F,3,17,66,9,1,13,1,881.50640603817,263,0,440,227,0,114,346,3,2,264,814,33,237,31,216,21,Low
P102_Exp6,C1,22,F,3,17,67,11,3,15,1,1615.68389633976,806,103,204,0,0,0,NA,5,3,485,814,43,96,0,91,21,Low
P102_Exp6,C1,22,F,3,17,68,10,2,14,1,1006.40483069947,507,43,240,157,0,110,297,6,4,302,811,0,133,0,80,21,Low
P102_Exp6,C1,22,F,3,18,69,9,1,13,1,914.027720256854,373,0,454,207,0,170,753,4,3,274,810,0,190,0,180,21,Low
P102_Exp6,C1,22,F,3,18,70,10,2,14,1,2391.61262395828,833,0,1258,250,0,0,NA,7,4,717,812,36,467,31,435,21,Low
P102_Exp6,C1,22,F,3,18,71,11,3,15,1,1719.60467421559,914,0,190,210,0,0,NA,6,4,516,813,61,667,31,639,21,Low
P102_Exp6,C1,22,F,3,18,72,12,4,16,1,564.258702273946,236,0,264,84,0,356,227,3,5,170,809,0,133,0,125,21,Low
P103_Exp6,C1,18,M,1,1,1,1,1,5,3,4339.57918529632,380,0,3587,203,0,0,NA,11,1,1302,812,12,0,0,0,35,High
P103_Exp6,C1,18,M,1,1,2,3,3,7,2,5451.69843625263,1229,0,2012,236,0,0,NA,18,1,1636,808,52,0,51,0,35,High
P103_Exp6,C1,18,M,1,1,3,2,2,6,2,3747.24101458196,417,0,2617,0,0,553,244,9,2,1124,810,7,0,0,0,35,High
P103_Exp6,C1,18,M,1,1,4,4,4,8,3,3855.16684919276,499,0,2315,284,0,580,220,12,3,1156,807,0,8,0,0,35,High
P103_Exp6,C1,18,M,1,2,5,2,2,6,3,6300.30348839864,1193,0,3177,0,0,0,NA,24,1,1891,809,33,0,0,0,35,High
P103_Exp6,C1,18,M,1,2,6,4,4,8,2,3792.80049697991,875,0,2250,167,0,0,NA,13,1,1138,806,0,0,0,0,35,High
P103_Exp6,C1,18,M,1,2,7,3,3,7,2,3995.22339329997,1028,0,1133,186,0,0,NA,15,1,1199,810,0,0,0,0,35,High
P103_Exp6,C1,18,M,1,2,8,1,1,5,1,2155.94546264765,777,0,846,207,0,640,203,7,3,647,812,0,0,0,0,35,High
P103_Exp6,C1,18,M,1,3,9,4,4,8,1,1619.46014443311,503,0,1019,427,0,397,196,5,3,486,813,0,0,0,0,35,High
P103_Exp6,C1,18,M,1,3,10,3,3,7,1,1706.24261201738,383,157,1033,397,0,263,197,5,5,512,811,0,0,0,0,35,High
P103_Exp6,C1,18,M,1,3,11,2,2,6,1,967.599429128313,303,0,616,80,0,640,204,3,3,290,814,0,0,0,0,35,High
P103_Exp6,C1,18,M,1,3,12,1,1,5,1,682.420252040174,170,0,450,264,0,374,310,2,7,205,814,0,8,0,0,35,High
P103_Exp6,C1,18,M,1,4,13,3,3,7,2,5987.1459654205,2736,0,2496,250,0,287,223,16,4,1797,807,4,0,0,0,35,High
P103_Exp6,C1,18,M,1,4,14,2,2,6,1,2091.59831587385,813,43,910,266,0,273,237,8,4,628,811,6,0,3,0,35,High
P103_Exp6,C1,18,M,1,4,15,4,4,8,1,1169.53391861534,310,0,583,876,0,0,NA,5,4,350,813,0,0,0,0,35,High
P103_Exp6,C1,18,M,1,4,16,1,1,5,1,668.31833499964,152,0,443,707,0,0,NA,4,9,200,814,0,48,0,44,35,High
P103_Exp6,C1,18,M,1,5,17,4,4,8,1,5401.89905131774,1909,216,2732,429,0,203,227,25,4,1620,814,0,0,0,0,35,High
P103_Exp6,C1,18,M,1,5,18,1,1,5,1,1339.64800900139,280,0,745,314,0,0,NA,8,9,402,812,0,0,0,0,35,High
P103_Exp6,C1,18,M,1,5,19,3,3,7,1,1693.83985568857,236,333,1064,563,0,0,NA,7,5,508,810,0,12,0,0,35,High
P103_Exp6,C1,18,M,1,5,20,2,2,6,1,899.784231642116,56,0,590,0,0,0,NA,4,1,270,814,0,0,0,0,35,High
P103_Exp6,C1,18,M,1,6,21,4,4,8,1,3020.52033137079,697,337,1549,403,0,0,NA,13,6,906,813,0,0,0,0,35,High
P103_Exp6,C1,18,M,1,6,22,1,1,5,1,1067.97608799025,130,0,717,180,0,0,NA,5,3,321,813,0,18,0,0,35,High
P103_Exp6,C1,18,M,1,6,23,2,2,6,1,2075.85972279776,580,0,1350,483,0,417,530,10,2,622,811,0,328,0,328,35,High
P103_Exp6,C1,18,M,1,6,24,3,3,7,1,1201.48532425083,278,0,380,447,0,390,400,6,6,361,813,0,355,0,355,35,High
P103_Exp6,C1,18,M,2,7,25,5,1,9,1,1616.41952516584,533,170,943,320,0,286,214,6,4,485,814,0,0,0,0,35,High
P103_Exp6,C1,18,M,2,7,26,7,3,11,2,3648.28882532311,582,143,2458,203,0,347,246,16,4,1094,809,0,0,0,0,35,High
P103_Exp6,C1,18,M,2,7,27,6,2,10,2,2288.02660700239,537,0,1418,723,0,0,NA,11,4,687,807,0,0,0,0,35,High
P103_Exp6,C1,18,M,2,7,28,8,4,12,1,1407.71223963384,407,127,875,310,0,177,363,5,3,422,811,0,0,0,0,35,High
P103_Exp6,C1,18,M,2,8,29,7,3,11,1,2635.74147884356,636,10,1623,163,0,274,200,7,6,791,813,48,0,45,0,35,High
P103_Exp6,C1,18,M,2,8,30,6,2,10,1,1578.64587546646,713,0,617,0,0,0,NA,4,3,473,810,0,0,0,0,35,High
P103_Exp6,C1,18,M,2,8,31,8,4,12,1,1460.37988270837,411,0,894,207,0,557,240,10,4,438,811,0,0,0,0,35,High
P103_Exp6,C1,18,M,2,8,32,5,1,9,1,1099.80041125164,340,0,567,394,0,300,240,6,3,330,813,0,0,0,0,35,High
P103_Exp6,C1,18,M,2,9,33,6,2,10,1,1450.25464771243,710,13,494,363,0,406,413,5,7,435,814,25,26,0,26,35,High
P103_Exp6,C1,18,M,2,9,34,8,4,12,1,1337.73966044464,537,0,694,420,0,407,456,7,5,401,812,0,112,0,87,35,High
P103_Exp6,C1,18,M,2,9,35,7,3,11,1,1245.86816275769,533,0,420,343,0,460,390,8,3,374,810,0,0,0,0,35,High
P103_Exp6,C1,18,M,2,9,36,5,1,9,1,635.949157393043,127,270,421,420,0,0,NA,3,12,191,813,0,0,0,0,35,High
P103_Exp6,C1,18,M,2,10,37,8,4,12,1,1915.49143144948,440,6,1307,340,0,384,389,7,6,575,814,0,7,0,0,35,High
P103_Exp6,C1,18,M,2,10,38,6,2,10,1,950.151714008825,333,0,499,463,0,0,NA,4,1,285,813,0,285,0,285,35,High
P103_Exp6,C1,18,M,2,10,39,5,1,9,1,1585.67404368296,274,480,1022,300,0,0,NA,9,5,476,813,0,0,0,0,35,High
P103_Exp6,C1,18,M,2,10,40,7,3,11,1,1164.6413983035,26,0,810,580,0,0,NA,5,2,350,814,1,129,0,87,35,High
P103_Exp6,C1,18,M,2,11,41,8,4,12,1,1250.02867654257,536,0,580,401,0,0,NA,4,6,375,813,0,334,0,334,35,High
P103_Exp6,C1,18,M,2,11,42,5,1,9,1,1769.47831630605,494,177,1087,486,0,0,NA,7,7,531,813,0,0,0,0,35,High
P103_Exp6,C1,18,M,2,11,43,7,3,11,1,1132.18649292685,547,388,463,50,0,0,NA,6,9,339,814,0,0,0,0,35,High
P103_Exp6,C1,18,M,2,11,44,6,2,10,1,808.284623457439,246,0,463,333,0,0,NA,4,2,243,811,0,0,0,0,35,High
P103_Exp6,C1,18,M,2,12,45,8,4,12,1,2562.00834819538,1264,0,700,287,0,0,NA,12,1,768,810,13,0,0,0,35,High
P103_Exp6,C1,18,M,2,12,46,6,2,10,1,1198.25815651348,380,170,736,246,0,413,500,6,5,360,814,0,430,0,430,35,High
P103_Exp6,C1,18,M,2,12,47,7,3,11,1,1333.68298593632,336,183,686,453,0,0,NA,4,9,401,813,0,0,0,0,35,High
P103_Exp6,C1,18,M,2,12,48,5,1,9,1,1105.79743130802,207,450,814,340,0,0,NA,6,10,332,811,0,13,0,1,35,High
P103_Exp6,C1,18,M,3,13,49,12,4,16,3,3564.14973140636,424,205,2843,183,0,207,367,7,10,1069,810,0,0,0,0,35,High
P103_Exp6,C1,18,M,3,13,50,11,3,15,1,1533.62339909654,443,534,764,393,0,0,NA,6,2,460,813,0,0,0,0,35,High
P103_Exp6,C1,18,M,3,13,51,9,1,13,2,5841.90772068905,564,0,3518,826,0,0,NA,15,6,1753,806,76,0,76,0,35,High
P103_Exp6,C1,18,M,3,13,52,10,2,14,1,1440.00082105413,371,437,842,361,0,0,NA,9,11,432,811,0,0,0,0,35,High
P103_Exp6,C1,18,M,3,14,53,9,1,13,1,2878.20196256507,734,30,1749,310,0,356,357,9,4,864,810,0,0,0,0,35,High
P103_Exp6,C1,18,M,3,14,54,10,2,14,1,1275.69025951379,360,0,513,496,0,0,NA,3,3,383,811,49,0,49,0,35,High
P103_Exp6,C1,18,M,3,14,55,12,4,16,1,1377.49984001493,540,334,704,0,0,0,NA,7,4,414,810,0,0,0,0,35,High
P103_Exp6,C1,18,M,3,14,56,11,3,15,1,1412.27875291588,426,387,636,316,0,0,NA,9,5,423,810,0,97,0,92,35,High
P103_Exp6,C1,18,M,3,15,57,10,2,14,1,1287.77727199486,366,489,420,257,0,0,NA,8,6,387,812,3,23,1,0,35,High
P103_Exp6,C1,18,M,3,15,58,12,4,16,1,1181.94844742175,690,0,400,916,0,0,NA,5,3,354,814,0,0,0,0,35,High
P103_Exp6,C1,18,M,3,15,59,9,1,13,1,1088.07442136458,390,798,574,0,0,0,NA,5,9,327,812,0,217,0,164,35,High
P103_Exp6,C1,18,M,3,15,60,11,3,15,1,1710.2482724622,584,0,973,230,0,0,NA,8,1,514,809,0,313,0,137,35,High
P103_Exp6,C1,18,M,3,16,61,12,4,16,1,1450.11277428057,1256,901,0,0,0,0,NA,11,5,435,814,0,0,0,0,35,High
P103_Exp6,C1,18,M,3,16,62,11,3,15,1,889.500521006994,828,863,0,0,0,0,NA,9,8,267,812,0,0,0,0,35,High
P103_Exp6,C1,18,M,3,16,63,10,2,14,1,757.694973333855,247,644,439,174,0,0,NA,4,13,227,811,0,3,0,0,35,High
P103_Exp6,C1,18,M,3,16,64,9,1,13,1,3466.30294746501,346,0,2159,660,0,0,NA,15,1,1040,814,183,242,86,241,35,High
P103_Exp6,C1,18,M,3,17,65,12,4,16,1,1273.48065631304,538,NA,491,NA,0,NA,NA,6,NA,382,812,26,465,26,465,35,High
P103_Exp6,C1,18,M,3,17,66,9,1,13,1,1400.22343555756,456,260,780,0,0,343,623,5,7,420,814,0,0,0,0,35,High
P103_Exp6,C1,18,M,3,17,67,11,3,15,1,2457.70632321,942,0,1420,174,0,0,NA,7,3,737,811,0,515,0,515,35,High
P103_Exp6,C1,18,M,3,17,68,10,2,14,1,1175.9628979853,260,10,467,0,0,0,NA,7,4,353,811,57,507,29,506,35,High
P103_Exp6,C1,18,M,3,18,69,11,3,15,1,1391.99175806061,737,159,614,334,0,223,306,2,10,417,811,0,28,0,0,35,High
P103_Exp6,C1,18,M,3,18,70,12,4,16,1,1362.09540414711,456,0,404,433,0,0,NA,5,7,409,810,57,508,57,508,35,High
P103_Exp6,C1,18,M,3,18,71,10,2,14,1,1203.53735738536,390,0,607,386,0,0,NA,6,4,362,812,0,550,0,543,35,High
P103_Exp6,C1,18,M,3,18,72,9,1,13,1,1781.99245837095,556,314,676,383,0,0,NA,5,4,534,814,46,543,46,543,35,High
P104_Exp6,C1,18,F,1,1,1,1,1,5,1,7862.2282218239,1186,0,4178,173,0,0,NA,27,1,2359,810,0,0,0,0,20,Low
P104_Exp6,C1,18,F,1,1,2,2,2,6,3,11682.1280531476,725,0,9689,0,0,390,273,34,2,3505,809,44,0,44,0,20,Low
P104_Exp6,C1,18,F,1,1,3,4,4,8,4,16022.2016824373,1104,0,12320,646,0,250,250,34,3,4807,808,0,26,0,26,20,Low
P104_Exp6,C1,18,F,1,1,4,3,3,7,3,15627.4258847152,1277,0,12499,550,0,277,249,41,3,4688,811,40,0,38,0,20,Low
P104_Exp6,C1,18,F,1,2,5,4,4,8,1,3362.08272609656,673,0,2185,349,0,206,307,9,3,1008,810,0,0,0,0,20,Low
P104_Exp6,C1,18,F,1,2,6,1,1,5,1,2692.24906212548,480,0,1980,240,0,574,286,11,2,808,811,0,0,0,0,20,Low
P104_Exp6,C1,18,F,1,2,7,2,2,6,1,3930.29275431036,331,0,2865,0,0,0,NA,19,2,1179,810,0,0,0,0,20,Low
P104_Exp6,C1,18,F,1,2,8,3,3,7,1,3357.7495493264,285,37,2641,527,0,210,257,16,4,1008,811,0,0,0,0,20,Low
P104_Exp6,C1,18,F,1,3,9,1,1,5,1,2172.36565189887,543,0,1297,0,0,300,273,7,3,652,812,0,0,0,0,20,Low
P104_Exp6,C1,18,F,1,3,10,4,4,8,1,1749.99728327384,531,0,1110,470,0,290,336,7,5,525,813,0,120,0,120,20,Low
P104_Exp6,C1,18,F,1,3,11,3,3,7,3,6929.66187033744,244,0,5291,570,0,246,254,17,3,2079,810,0,0,0,0,20,Low
P104_Exp6,C1,18,F,1,3,12,2,2,6,2,6380.81454667554,901,0,4642,250,0,350,300,21,3,1914,810,0,0,0,0,20,Low
P104_Exp6,C1,18,F,1,4,13,4,4,8,1,4108.52170301223,1164,0,2577,716,0,0,NA,16,4,1233,811,0,50,0,50,20,Low
P104_Exp6,C1,18,F,1,4,14,3,3,7,2,4455.65730865565,432,157,3146,554,0,154,293,13,5,1337,807,0,0,0,0,20,Low
P104_Exp6,C1,18,F,1,4,15,2,2,6,2,6086.51713408472,736,97,4185,519,0,193,304,30,5,1826,813,0,107,0,107,20,Low
P104_Exp6,C1,18,F,1,4,16,1,1,5,1,2059.8938303774,924,0,636,347,0,387,396,15,2,618,811,0,27,0,27,20,Low
P104_Exp6,C1,18,F,1,5,17,2,2,6,3,5958.96869487478,483,397,4607,410,0,0,NA,17,4,1788,811,59,31,59,31,20,Low
P104_Exp6,C1,18,F,1,5,18,4,4,8,1,4569.81953699869,1515,179,2273,410,0,0,NA,27,9,1371,813,0,0,0,0,20,Low
P104_Exp6,C1,18,F,1,5,19,3,3,7,2,8476.42606945374,867,361,5043,563,0,0,NA,33,5,2543,811,277,0,273,0,20,Low
P104_Exp6,C1,18,F,1,5,20,1,1,5,1,2874.13019513406,396,0,2041,400,0,0,NA,14,3,862,812,0,0,0,0,20,Low
P104_Exp6,C1,18,F,1,6,21,3,3,7,1,5198.23249855472,2244,77,1837,213,0,283,260,31,5,1559,810,58,0,51,0,20,Low
P104_Exp6,C1,18,F,1,6,22,4,4,8,1,2255.89529378703,971,0,1117,590,0,0,NA,13,4,677,812,0,0,0,0,20,Low
P104_Exp6,C1,18,F,1,6,23,2,2,6,1,4430.28339670127,1390,0,2539,487,0,374,273,25,3,1329,810,0,0,0,0,20,Low
P104_Exp6,C1,18,F,1,6,24,1,1,5,1,1253.58758661605,175,0,643,560,0,0,NA,9,3,376,812,0,337,0,336,20,Low
P104_Exp6,C1,18,F,2,7,25,5,1,9,1,7628.54034578413,4500,0,1851,250,0,0,NA,56,1,2289,810,57,0,47,0,20,Low
P104_Exp6,C1,18,F,2,7,26,7,3,11,1,4859.78528211126,1027,140,3193,227,0,360,263,34,9,1458,811,17,0,0,0,20,Low
P104_Exp6,C1,18,F,2,7,27,6,2,10,1,2441.73620477159,493,0,1180,153,0,350,246,14,5,732,811,0,0,0,0,20,Low
P104_Exp6,C1,18,F,2,7,28,8,4,12,1,1577.65396889226,285,0,963,444,0,417,243,15,3,473,811,0,182,0,149,20,Low
P104_Exp6,C1,18,F,2,8,29,5,1,9,1,2654.13219947368,831,0,1486,407,0,453,493,17,4,796,812,0,55,0,55,20,Low
P104_Exp6,C1,18,F,2,8,30,6,2,10,2,4748.51153642157,420,0,3837,490,0,293,283,21,3,1425,814,0,0,0,0,20,Low
P104_Exp6,C1,18,F,2,8,31,8,4,12,1,2406.49816530276,266,23,1369,627,0,0,NA,18,5,722,810,0,240,0,223,20,Low
P104_Exp6,C1,18,F,2,8,32,7,3,11,1,1631.7587596277,237,0,680,540,0,263,273,16,3,490,814,10,61,0,60,20,Low
P104_Exp6,C1,18,F,2,9,33,5,1,9,1,1364.31768539842,344,0,746,498,0,0,NA,5,6,409,810,1,0,0,0,20,Low
P104_Exp6,C1,18,F,2,9,34,7,3,11,3,6903.01411610562,210,0,4474,490,0,270,726,12,4,2071,813,0,0,0,0,20,Low
P104_Exp6,C1,18,F,2,9,35,6,2,10,2,5890.78824877652,333,0,3494,0,0,223,307,21,2,1768,806,62,59,61,55,20,Low
P104_Exp6,C1,18,F,2,9,36,8,4,12,1,1225.867329631,53,0,853,200,0,246,257,7,3,368,810,0,45,0,45,20,Low
P104_Exp6,C1,18,F,2,10,37,5,1,9,1,1078.39654045893,0,0,1003,204,0,343,260,3,5,324,810,0,94,0,86,20,Low
P104_Exp6,C1,18,F,2,10,38,8,4,12,2,6893.46180827852,606,0,3603,386,0,360,247,24,3,2068,811,49,52,49,52,20,Low
P104_Exp6,C1,18,F,2,10,39,6,2,10,1,3929.82245898384,347,0,895,263,0,580,310,25,2,1179,810,303,0,303,0,20,Low
P104_Exp6,C1,18,F,2,10,40,7,3,11,1,1062.12878967926,0,0,619,0,0,417,220,8,4,319,810,3,0,0,0,20,Low
P104_Exp6,C1,18,F,2,11,41,8,4,12,1,2127.91580083649,420,0,1284,166,0,306,240,13,3,638,810,0,0,0,0,20,Low
P104_Exp6,C1,18,F,2,11,42,7,3,11,1,5013.68293763517,996,0,3349,0,0,243,227,30,2,1504,810,0,101,0,97,20,Low
P104_Exp6,C1,18,F,2,11,43,6,2,10,1,925.558105922391,47,0,403,0,0,214,250,8,2,278,811,0,205,0,198,20,Low
P104_Exp6,C1,18,F,2,11,44,5,1,9,1,314.335978015151,0,0,310,276,0,350,327,1,2,95,809,0,379,0,371,20,Low
P104_Exp6,C1,18,F,2,12,45,8,4,12,1,4113.61616656723,180,124,3496,490,0,190,256,13,4,1234,810,0,97,0,92,20,Low
P104_Exp6,C1,18,F,2,12,46,5,1,9,1,1709.62644424071,50,0,1224,182,0,330,253,12,6,513,811,0,127,0,123,20,Low
P104_Exp6,C1,18,F,2,12,47,6,2,10,1,4900.18479768696,265,0,2182,0,0,293,267,28,2,1470,814,196,0,196,0,20,Low
P104_Exp6,C1,18,F,2,12,48,7,3,11,1,351.970471005188,0,0,283,253,0,403,297,2,2,106,813,0,358,0,358,20,Low
P104_Exp6,C1,18,F,3,13,49,12,4,16,1,1739.63599503986,443,0,1063,233,0,369,284,10,3,522,812,0,0,0,0,20,Low
P104_Exp6,C1,18,F,3,13,50,10,2,14,1,1479.72628691423,189,0,776,266,0,493,250,11,3,444,809,0,0,0,0,20,Low
P104_Exp6,C1,18,F,3,13,51,9,1,13,1,1045.47435833956,80,0,701,540,0,323,350,12,3,314,810,0,0,0,0,20,Low
P104_Exp6,C1,18,F,3,13,52,11,3,15,1,877.563833986642,0,0,586,257,0,633,300,6,2,264,810,0,81,0,81,20,Low
P104_Exp6,C1,18,F,3,14,53,9,1,13,1,1107.74381401643,181,0,576,143,0,633,184,11,2,332,812,0,111,0,106,20,Low
P104_Exp6,C1,18,F,3,14,54,12,4,16,1,1400.25452697228,217,0,840,67,0,490,193,8,6,420,814,0,138,0,138,20,Low
P104_Exp6,C1,18,F,3,14,55,11,3,15,2,2994.70872479287,10,0,1733,377,0,300,217,9,4,898,811,0,119,0,117,20,Low
P104_Exp6,C1,18,F,3,14,56,10,2,14,1,1555.60925280588,170,0,206,0,0,613,170,7,4,467,812,135,0,135,0,20,Low
P104_Exp6,C1,18,F,3,15,57,12,4,16,1,1623.84403340548,0,280,1271,619,0,0,NA,6,6,487,812,22,58,0,58,20,Low
P104_Exp6,C1,18,F,3,15,58,9,1,13,1,1513.53744190783,244,0,957,206,0,247,270,15,5,454,810,0,325,0,301,20,Low
P104_Exp6,C1,18,F,3,15,59,10,2,14,1,1013.98117369536,94,56,133,73,0,0,NA,8,7,304,809,1,155,0,155,20,Low
P104_Exp6,C1,18,F,3,15,60,11,3,15,1,551.444814860588,0,0,543,216,0,594,260,1,2,165,814,0,357,0,313,20,Low
P104_Exp6,C1,18,F,3,16,61,10,2,14,2,5048.35831311721,349,0,1936,206,849,0,NA,26,5,1515,809,132,56,79,56,20,Low
P104_Exp6,C1,18,F,3,16,62,11,3,15,1,4176.0244770885,505,0,3211,183,0,477,227,20,2,1253,811,0,39,0,39,20,Low
P104_Exp6,C1,18,F,3,16,63,9,1,13,1,1850.35341576804,0,0,1177,67,167,640,117,9,2,555,814,42,37,40,36,20,Low
P104_Exp6,C1,18,F,3,16,64,12,4,16,1,1401.72699205141,154,0,777,0,0,583,3,9,3,421,813,0,0,0,0,20,Low
P104_Exp6,C1,18,F,3,17,65,11,3,15,2,4592.47672370111,217,0,3902,173,0,660,213,11,2,1378,811,0,58,0,58,20,Low
P104_Exp6,C1,18,F,3,17,66,9,1,13,1,1130.04148741311,0,113,673,0,0,460,33,7,5,339,810,0,72,0,72,20,Low
P104_Exp6,C1,18,F,3,17,67,12,4,16,1,1255.85031689116,393,157,668,13,0,297,170,10,7,377,811,0,0,0,0,20,Low
P104_Exp6,C1,18,F,3,17,68,10,2,14,1,2158.32833254899,0,0,0,0,110,150,3,5,1,648,811,95,73,95,71,20,Low
P104_Exp6,C1,18,F,3,18,69,11,3,15,1,1719.50385352466,219,0,1157,216,0,0,NA,10,1,516,812,0,89,0,89,20,Low
P104_Exp6,C1,18,F,3,18,70,12,4,16,1,1684.24287282323,147,0,1053,143,94,557,166,10,6,505,813,0,138,0,137,20,Low
P104_Exp6,C1,18,F,3,18,71,10,2,14,1,6848.56279197265,2265,0,2555,0,0,0,NA,71,1,2054,810,124,187,122,186,20,Low
P104_Exp6,C1,18,F,3,18,72,9,1,13,1,855.762113878882,167,167,267,0,0,490,260,8,4,257,812,0,65,0,65,20,Low
P105_Exp6,C1,19,M,1,1,1,4,4,8,2,2941.5979536418,357,0,1680,200,0,0,NA,9,1,883,811,23,7,0,0,18,Low
P105_Exp6,C1,19,M,1,1,2,1,1,5,2,2591.1796383254,140,0,1410,184,0,607,223,11,3,777,806,35,0,35,0,18,Low
P105_Exp6,C1,19,M,1,1,3,3,3,7,2,2177.76770912445,130,0,1249,0,0,0,NA,9,2,654,805,34,26,0,26,18,Low
P105_Exp6,C1,19,M,1,1,4,2,2,6,1,1716.18341155488,143,0,754,0,0,0,NA,7,2,515,813,3,40,0,40,18,Low
P105_Exp6,C1,19,M,1,2,5,4,4,8,3,4710.29868281084,397,250,3601,227,57,349,270,14,4,1414,805,0,0,0,0,18,Low
P105_Exp6,C1,19,M,1,2,6,3,3,7,1,1459.90445579162,363,16,792,182,0,510,234,5,5,438,811,0,0,0,0,18,Low
P105_Exp6,C1,19,M,1,2,7,2,2,6,1,764.25344993919,273,0,293,0,0,486,374,3,3,229,809,0,19,0,0,18,Low
P105_Exp6,C1,19,M,1,2,8,1,1,5,2,2501.88148316295,440,301,1883,163,0,286,200,8,6,751,808,0,17,0,0,18,Low
P105_Exp6,C1,19,M,1,3,9,4,4,8,1,1744.00780967954,399,0,1054,620,0,0,NA,6,9,523,810,35,0,35,0,18,Low
P105_Exp6,C1,19,M,1,3,10,3,3,7,1,1020.05184719201,346,190,450,247,0,187,323,3,7,306,813,38,0,38,0,18,Low
P105_Exp6,C1,19,M,1,3,11,1,1,5,1,1811.90571635216,173,340,1014,0,0,137,197,9,5,543,810,0,5,0,0,18,Low
P105_Exp6,C1,19,M,1,3,12,2,2,6,1,822.210255215225,274,0,0,0,0,0,NA,3,2,247,812,0,138,0,104,18,Low
P105_Exp6,C1,19,M,1,4,13,1,1,5,1,1609.8344850236099,287,0,976,210,0,110,303,7,15,483,810,0,0,0,0,18,Low
P105_Exp6,C1,19,M,1,4,14,2,2,6,1,1130.27482392602,343,0,633,184,0,460,427,5,7,339,810,0,419,0,415,18,Low
P105_Exp6,C1,19,M,1,4,15,4,4,8,1,1080.03653693595,180,0,813,303,0,173,487,5,11,324,810,0,126,0,105,18,Low
P105_Exp6,C1,19,M,1,4,16,3,3,7,1,533.821720037224,140,0,290,226,0,273,267,6,3,160,813,0,65,0,65,18,Low
P105_Exp6,C1,19,M,1,5,17,2,2,6,2,3465.26002682918,600,0,1815,169,0,0,NA,13,5,1040,814,121,168,121,168,18,Low
P105_Exp6,C1,19,M,1,5,18,4,4,8,1,1381.7469871517,340,0,566,0,0,520,400,5,1,414,814,94,94,94,85,18,Low
P105_Exp6,C1,19,M,1,5,19,3,3,7,1,3703.98954121151,203,0,2372,0,0,287,240,13,3,1112,812,38,2,38,0,18,Low
P105_Exp6,C1,19,M,1,5,20,1,1,5,1,3270.16594965244,553,0,1446,223,0,0,NA,14,4,981,813,31,0,31,0,18,Low
P105_Exp6,C1,19,M,1,6,21,3,3,7,2,4019.90786075396,363,0,3216,217,0,410,390,15,6,1207,807,19,119,0,119,18,Low
P105_Exp6,C1,19,M,1,6,22,4,4,8,1,1101.89923243456,270,0,577,281,0,146,560,6,6,331,813,8,31,0,30,18,Low
P105_Exp6,C1,19,M,1,6,23,1,1,5,1,1226.39286503431,153,0,506,475,93,0,NA,8,9,368,811,0,7,0,0,18,Low
P105_Exp6,C1,19,M,1,6,24,2,2,6,1,218.033803306696,0,237,0,0,0,287,413,1,5,65,813,0,206,0,84,18,Low
P105_Exp6,C1,19,M,2,7,25,7,3,11,3,3219.69885402495,339,334,2012,203,0,197,237,14,8,966,808,26,16,26,0,18,Low
P105_Exp6,C1,19,M,2,7,26,6,2,10,1,1083.83180210649,63,0,543,0,0,380,320,7,6,326,813,1,5,0,0,18,Low
P105_Exp6,C1,19,M,2,7,27,5,1,9,2,3889.07399514369,0,122,786,160,0,129,200,4,11,1167,812,910,29,883,0,18,Low
P105_Exp6,C1,19,M,2,7,28,8,4,12,2,1950.8034262131,204,137,1343,180,106,413,213,11,4,586,808,15,74,0,70,18,Low
P105_Exp6,C1,19,M,2,8,29,6,2,10,1,1309.42927036006,77,0,343,257,0,403,234,9,5,393,810,3,0,0,0,18,Low
P105_Exp6,C1,19,M,2,8,30,5,1,9,1,745.844617805062,204,0,320,220,0,0,NA,5,8,224,810,0,0,0,0,18,Low
P105_Exp6,C1,19,M,2,8,31,8,4,12,2,2190.07598378658,301,176,1769,214,0,357,250,7,10,657,811,0,0,0,0,18,Low
P105_Exp6,C1,19,M,2,8,32,7,3,11,1,432.017874844689,222,137,0,0,0,334,283,4,9,130,814,0,265,0,257,18,Low
P105_Exp6,C1,19,M,2,9,33,8,4,12,1,1110.0895553385,234,0,354,193,0,0,NA,6,3,334,810,19,0,0,0,18,Low
P105_Exp6,C1,19,M,2,9,34,6,2,10,1,867.582283570641,167,0,496,582,0,0,NA,6,6,260,813,0,0,0,0,18,Low
P105_Exp6,C1,19,M,2,9,35,7,3,11,1,1074.38212612124,457,0,464,198,0,10,280,5,5,323,811,0,0,0,0,18,Low
P105_Exp6,C1,19,M,2,9,36,5,1,9,1,383.195907283607,163,0,0,289,0,463,330,3,3,115,813,0,116,0,95,18,Low
P105_Exp6,C1,19,M,2,10,37,6,2,10,1,1279.86375321029,210,0,713,190,0,173,533,5,7,384,810,49,36,41,36,18,Low
P105_Exp6,C1,19,M,2,10,38,8,4,12,1,1511.7447051025,200,0,841,488,0,0,NA,5,10,454,810,0,25,0,0,18,Low
P105_Exp6,C1,19,M,2,10,39,7,3,11,1,644.068845440074,293,0,287,257,0,433,417,4,5,193,810,0,0,0,0,18,Low
P105_Exp6,C1,19,M,2,10,40,5,1,9,1,348.268480070715,0,96,80,126,226,0,NA,2,6,105,814,0,414,0,329,18,Low
P105_Exp6,C1,19,M,2,11,41,6,2,10,1,1640.37440096206,177,0,841,560,0,0,NA,12,12,492,811,0,80,0,77,18,Low
P105_Exp6,C1,19,M,2,11,42,7,3,11,1,3462.53696255633,760,0,697,166,0,287,227,16,12,1039,810,149,440,142,440,18,Low
P105_Exp6,C1,19,M,2,11,43,5,1,9,1,1853.68502649715,346,0,1327,210,0,160,243,6,4,556,812,0,0,0,0,18,Low
P105_Exp6,C1,19,M,2,11,44,8,4,12,1,308.020497390089,0,166,304,0,0,0,NA,1,8,93,811,0,127,0,126,18,Low
P105_Exp6,C1,19,M,2,12,45,5,1,9,1,1212.10953111733,143,0,707,240,0,0,NA,6,15,363,810,0,160,0,160,18,Low
P105_Exp6,C1,19,M,2,12,46,8,4,12,1,1941.6580234556,243,0,1392,687,0,0,NA,6,8,583,811,47,203,47,192,18,Low
P105_Exp6,C1,19,M,2,12,47,6,2,10,1,849.64193561234,317,0,283,512,0,0,NA,5,7,255,814,0,0,0,0,18,Low
P105_Exp6,C1,19,M,2,12,48,7,3,11,1,352.059821082548,0,0,344,725,0,31,890,1,8,105,813,0,175,0,96,18,Low
P105_Exp6,C1,19,M,3,13,49,9,1,13,4,10018.6995217356,430,498,4150,197,526,0,NA,32,15,3006,808,646,0,617,0,18,Low
P105_Exp6,C1,19,M,3,13,50,11,3,15,1,1777.80417361441,323,0,497,239,0,246,404,7,9,534,810,0,0,0,0,18,Low
P105_Exp6,C1,19,M,3,13,51,10,2,14,2,1700.49341767663,180,322,887,0,0,160,340,7,8,510,808,27,0,0,0,18,Low
P105_Exp6,C1,19,M,3,13,52,12,4,16,2,2186.61608325499,348,0,1253,207,0,580,253,12,3,656,808,0,1,0,0,18,Low
P105_Exp6,C1,19,M,3,14,53,10,2,14,1,1294.11901429967,0,10,171,94,0,276,247,5,14,388,810,276,41,273,39,18,Low
P105_Exp6,C1,19,M,3,14,54,11,3,15,1,1380.22471543809,256,384,583,176,0,167,247,4,11,414,810,6,37,0,36,18,Low
P105_Exp6,C1,19,M,3,14,55,12,4,16,1,1230.04535120003,267,0,654,470,0,230,270,6,4,370,809,48,0,48,0,18,Low
P105_Exp6,C1,19,M,3,14,56,9,1,13,1,343.773809078129,0,400,47,146,0,0,NA,3,8,103,810,50,376,28,376,18,Low
P105_Exp6,C1,19,M,3,15,57,12,4,16,1,1299.50839347362,430,0,779,170,0,0,NA,5,5,390,814,0,324,0,300,18,Low
P105_Exp6,C1,19,M,3,15,58,9,1,13,1,1240.00879011544,332,0,270,200,0,567,243,6,3,372,811,3,402,0,402,18,Low
P105_Exp6,C1,19,M,3,15,59,10,2,14,1,1568.0636269127,581,0,170,339,0,0,NA,8,21,471,813,0,0,0,0,18,Low
P105_Exp6,C1,19,M,3,15,60,11,3,15,1,585.771845791442,0,0,329,619,0,0,NA,6,19,175,813,0,0,0,0,18,Low
P105_Exp6,C1,19,M,3,16,61,10,2,14,2,4752.44293971411,2582,0,1003,347,0,0,NA,13,13,1426,813,0,22,0,0,18,Low
P105_Exp6,C1,19,M,3,16,62,9,1,13,1,1490.34445661266,173,0,1024,226,0,163,263,5,4,447,811,0,12,0,0,18,Low
P105_Exp6,C1,19,M,3,16,63,12,4,16,1,1080.3691848497,230,0,689,147,0,144,190,7,3,324,810,0,0,0,0,18,Low
P105_Exp6,C1,19,M,3,16,64,11,3,15,2,1174.23445701115,323,0,293,77,0,396,207,8,4,353,811,0,175,0,172,18,Low
P105_Exp6,C1,19,M,3,17,65,9,1,13,1,1717.85691430728,217,200,930,37,0,0,NA,5,8,515,814,34,0,0,0,18,Low
P105_Exp6,C1,19,M,3,17,66,10,2,14,1,907.634662033388,213,0,0,444,0,0,NA,6,10,273,811,0,28,0,28,18,Low
P105_Exp6,C1,19,M,3,17,67,11,3,15,1,1000.05191963805,156,0,563,200,0,487,246,4,2,300,813,0,164,0,131,18,Low
P105_Exp6,C1,19,M,3,17,68,12,4,16,1,193.543430777254,0,131,23,230,0,143,547,2,5,58,811,0,0,0,0,18,Low
P105_Exp6,C1,19,M,3,18,69,9,1,13,1,1211.72103940694,400,0,677,170,0,170,190,9,16,364,810,0,24,0,0,18,Low
P105_Exp6,C1,19,M,3,18,70,12,4,16,1,1156.16944154988,156,0,544,397,0,187,293,5,15,347,811,0,172,0,153,18,Low
P105_Exp6,C1,19,M,3,18,71,10,2,14,1,663.559537939364,177,0,96,0,0,0,NA,5,7,199,810,0,198,0,192,18,Low
P105_Exp6,C1,19,M,3,18,72,11,3,15,1,222.10043914356,0,0,160,0,0,280,276,2,3,66,812,0,428,0,409,18,Low
P106_Exp6,C1,19,F,1,1,1,2,2,6,2,3486.84169219359,424,0,2345,210,0,560,247,14,2,1047,812,0,9,0,0,31,High
P106_Exp6,C1,19,F,1,1,2,3,3,7,1,1386.18792735542,220,0,623,197,0,327,413,7,3,416,813,31,70,28,70,31,High
P106_Exp6,C1,19,F,1,1,3,4,4,8,2,2196.4041424626,0,0,1766,173,0,304,510,13,8,659,806,51,73,50,43,31,High
P106_Exp6,C1,19,F,1,1,4,1,1,5,2,2086.09030636217,0,0,1571,151,0,324,263,16,10,626,808,0,209,0,205,31,High
P106_Exp6,C1,19,F,1,2,5,3,3,7,1,1167.63854996952,282,52,552,200,0,357,246,9,5,350,813,0,76,0,76,31,High
P106_Exp6,C1,19,F,1,2,6,4,4,8,1,1907.50818338074,243,0,1293,200,0,370,256,10,3,572,812,0,56,0,44,31,High
P106_Exp6,C1,19,F,1,2,7,1,1,5,2,3110.92992901467,343,0,2440,217,0,243,303,12,4,933,805,0,70,0,70,31,High
P106_Exp6,C1,19,F,1,2,8,2,2,6,2,2861.80984613657,257,0,2307,210,0,377,256,11,2,859,810,0,296,0,271,31,High
P106_Exp6,C1,19,F,1,3,9,4,4,8,1,2110.39111184073,183,0,1456,183,0,183,230,15,3,633,811,0,61,0,55,31,High
P106_Exp6,C1,19,F,1,3,10,1,1,5,1,2539.74810523505,320,0,1919,200,0,257,350,11,3,762,812,0,159,0,159,31,High
P106_Exp6,C1,19,F,1,3,11,2,2,6,1,1309.72358226154,277,0,910,210,0,253,267,6,2,393,810,0,26,0,0,31,High
P106_Exp6,C1,19,F,1,3,12,3,3,7,1,820.112037748913,311,0,337,250,0,210,506,6,3,246,813,0,61,0,53,31,High
P106_Exp6,C1,19,F,1,4,13,2,2,6,3,3476.24435072066,261,293,2706,247,0,0,NA,10,3,1043,805,0,207,0,177,31,High
P106_Exp6,C1,19,F,1,4,14,1,1,5,1,2228.3552462377,567,0,1316,316,0,450,403,11,3,669,810,0,60,0,56,31,High
P106_Exp6,C1,19,F,1,4,15,4,4,8,1,1668.02100451241,247,0,1073,431,0,0,NA,17,3,500,813,0,136,0,131,31,High
P106_Exp6,C1,19,F,1,4,16,3,3,7,1,729.735040805281,277,0,400,206,0,0,NA,4,3,219,810,0,152,0,148,31,High
P106_Exp6,C1,19,F,1,5,17,1,1,5,1,2874.14589176842,806,0,1800,200,0,376,247,11,2,862,811,0,176,0,171,31,High
P106_Exp6,C1,19,F,1,5,18,3,3,7,1,1111.71355331953,170,166,693,547,0,0,NA,5,3,334,810,0,0,0,0,31,High
P106_Exp6,C1,19,F,1,5,19,2,2,6,1,1020.16655336956,294,0,673,280,0,403,343,4,3,307,812,0,264,0,253,31,High
P106_Exp6,C1,19,F,1,5,20,4,4,8,1,926.010591606428,197,0,647,243,0,0,NA,5,2,278,811,0,502,0,492,31,High
P106_Exp6,C1,19,F,1,6,21,2,2,6,1,1125.94828804049,140,0,766,349,0,0,NA,4,7,338,811,0,58,0,58,31,High
P106_Exp6,C1,19,F,1,6,22,3,3,7,1,897.724048330929,127,0,551,793,0,0,NA,6,1,269,809,3,49,0,49,31,High
P106_Exp6,C1,19,F,1,6,23,1,1,5,1,991.813601254762,242,0,436,322,0,187,463,13,6,298,811,0,87,0,42,31,High
P106_Exp6,C1,19,F,1,6,24,4,4,8,1,1562.08834066001,170,0,904,372,0,150,626,18,5,469,810,0,0,0,0,31,High
P106_Exp6,C1,19,F,2,7,25,7,3,11,1,1588.19365542058,523,170,411,326,0,246,254,6,4,476,812,116,0,116,0,31,High
P106_Exp6,C1,19,F,2,7,26,8,4,12,3,3477.36213223106,319,314,2595,287,0,0,NA,26,5,1043,806,0,66,0,62,31,High
P106_Exp6,C1,19,F,2,7,27,6,2,10,1,1827.51269918117,264,0,992,156,0,323,306,16,14,548,810,0,0,0,0,31,High
P106_Exp6,C1,19,F,2,7,28,5,1,9,1,1236.20114875212,400,477,643,0,0,0,NA,7,5,371,813,0,187,0,172,31,High
P106_Exp6,C1,19,F,2,8,29,7,3,11,1,915.484186847607,293,0,523,326,0,0,NA,4,5,274,814,0,125,0,125,31,High
P106_Exp6,C1,19,F,2,8,30,8,4,12,1,1432.32637408983,291,0,970,350,0,0,NA,10,7,430,814,0,65,0,60,31,High
P106_Exp6,C1,19,F,2,8,31,6,2,10,1,616.3965839296,153,0,239,461,0,194,313,7,12,185,814,0,0,0,0,31,High
P106_Exp6,C1,19,F,2,8,32,5,1,9,1,424.244418336457,0,310,410,63,0,0,NA,2,5,127,811,0,0,0,0,31,High
P106_Exp6,C1,19,F,2,9,33,8,4,12,1,1669.63745603425,480,163,916,319,0,0,NA,14,5,501,812,0,259,0,231,31,High
P106_Exp6,C1,19,F,2,9,34,7,3,11,1,1122.33413788636,266,491,673,0,0,170,786,6,5,336,812,0,49,0,49,31,High
P106_Exp6,C1,19,F,2,9,35,5,1,9,1,1560.19508502141,210,0,803,190,67,724,246,10,3,468,811,0,0,0,0,31,High
P106_Exp6,C1,19,F,2,9,36,6,2,10,1,819.595859951733,287,0,448,173,0,237,433,6,6,246,813,0,105,0,101,31,High
P106_Exp6,C1,19,F,2,10,37,5,1,9,1,1884.33874303701,423,0,1156,379,0,453,436,10,4,565,813,0,84,0,83,31,High
P106_Exp6,C1,19,F,2,10,38,7,3,11,1,866.306931996405,227,0,577,280,0,311,646,5,4,260,814,0,65,0,60,31,High
P106_Exp6,C1,19,F,2,10,39,6,2,10,1,1298.19410216987,277,0,947,63,0,0,NA,4,2,389,814,0,47,0,34,31,High
P106_Exp6,C1,19,F,2,10,40,8,4,12,1,1293.62517402114,284,0,866,867,0,0,NA,5,3,388,811,0,0,0,0,31,High
P106_Exp6,C1,19,F,2,11,41,7,3,11,1,923.563727733381,0,0,431,443,0,457,490,5,3,278,811,0,48,0,48,31,High
P106_Exp6,C1,19,F,2,11,42,6,2,10,1,920.370066275609,278,0,540,167,0,0,NA,5,5,276,812,0,310,0,291,31,High
P106_Exp6,C1,19,F,2,11,43,8,4,12,1,2204.23283905075,311,0,817,60,0,0,NA,11,5,662,812,164,89,145,87,31,High
P106_Exp6,C1,19,F,2,11,44,5,1,9,1,1109.56371807424,364,0,663,200,0,490,253,5,4,333,810,0,179,0,163,31,High
P106_Exp6,C1,19,F,2,12,45,6,2,10,1,977.799524995135,220,0,342,233,0,379,294,9,7,294,810,0,61,0,61,31,High
P106_Exp6,C1,19,F,2,12,46,7,3,11,1,875.666352331791,84,0,144,83,0,337,310,9,7,262,811,2,323,0,314,31,High
P106_Exp6,C1,19,F,2,12,47,5,1,9,1,1385.49486055945,357,0,818,356,0,0,NA,8,6,416,813,0,0,0,0,31,High
P106_Exp6,C1,19,F,2,12,48,8,4,12,1,403.568026195899,242,0,0,0,0,430,300,3,3,121,813,0,30,0,0,31,High
P106_Exp6,C1,19,F,3,13,49,11,3,15,2,2341.73656700114,570,417,1440,274,140,0,NA,16,6,703,811,0,0,0,0,31,High
P106_Exp6,C1,19,F,3,13,50,10,2,14,2,2393.68578717949,250,170,1746,324,0,0,NA,12,9,719,810,0,0,0,0,31,High
P106_Exp6,C1,19,F,3,13,51,9,1,13,1,2523.75081954597,210,270,1427,613,0,0,NA,17,2,757,812,76,73,56,73,31,High
P106_Exp6,C1,19,F,3,13,52,12,4,16,1,976.301401950877,0,14,846,286,0,153,577,5,4,293,811,0,46,0,42,31,High
P106_Exp6,C1,19,F,3,14,53,9,1,13,1,3446.4551565261,684,0,1769,337,0,500,227,16,4,1034,810,59,80,59,78,31,High
P106_Exp6,C1,19,F,3,14,54,10,2,14,1,1622.26772904705,318,0,1099,527,0,0,NA,12,5,487,812,0,184,0,178,31,High
P106_Exp6,C1,19,F,3,14,55,11,3,15,2,5672.16069007191,1259,560,3413,20,0,0,NA,32,10,1702,812,49,74,49,71,31,High
P106_Exp6,C1,19,F,3,14,56,12,4,16,1,1468.26532866908,390,0,879,200,0,430,257,8,5,440,813,0,66,0,65,31,High
P106_Exp6,C1,19,F,3,15,57,11,3,15,1,812.215724888119,287,0,413,180,0,660,240,6,4,244,810,0,96,0,85,31,High
P106_Exp6,C1,19,F,3,15,58,10,2,14,1,717.738283971812,197,0,454,537,0,166,230,7,5,216,813,0,0,0,0,31,High
P106_Exp6,C1,19,F,3,15,59,9,1,13,1,929.561653362725,323,0,530,210,0,0,NA,3,1,279,809,0,330,0,294,31,High
P106_Exp6,C1,19,F,3,15,60,12,4,16,1,1406.43507690766,49,0,663,230,0,0,NA,7,4,422,812,3,216,0,203,31,High
P106_Exp6,C1,19,F,3,16,61,10,2,14,1,3567.83632756742,483,0,2160,270,0,0,NA,25,7,1070,813,47,299,45,286,31,High
P106_Exp6,C1,19,F,3,16,62,12,4,16,1,2602.33058803169,350,0,1126,370,0,0,NA,9,4,781,813,128,107,128,107,31,High
P106_Exp6,C1,19,F,3,16,63,11,3,15,1,1243.56890762283,173,600,643,180,0,0,NA,8,6,373,810,47,41,47,41,31,High
P106_Exp6,C1,19,F,3,16,64,9,1,13,1,1665.72024008656,211,0,1344,216,0,0,NA,6,3,500,814,0,549,0,530,31,High
P106_Exp6,C1,19,F,3,17,65,12,4,16,1,1639.86727891552,184,0,1189,216,0,440,504,10,4,492,811,0,265,0,249,31,High
P106_Exp6,C1,19,F,3,17,66,10,2,14,1,4094.02525709265,422,0,1619,206,0,264,580,15,3,1229,810,372,136,369,133,31,High
P106_Exp6,C1,19,F,3,17,67,11,3,15,1,1075.69249326571,90,0,693,400,0,0,NA,7,3,323,810,0,12,0,0,31,High
P106_Exp6,C1,19,F,3,17,68,9,1,13,1,1371.51429057849,236,0,815,307,0,530,397,6,6,412,812,0,51,0,39,31,High
P106_Exp6,C1,19,F,3,18,69,10,2,14,1,1655.5950050888,160,0,1144,200,0,263,244,7,2,496,812,0,36,0,36,31,High
P106_Exp6,C1,19,F,3,18,70,9,1,13,1,1231.93045666358,110,0,794,201,0,257,416,6,7,370,814,0,31,0,31,31,High
P106_Exp6,C1,19,F,3,18,71,12,4,16,1,1632.10318001711,207,0,1193,141,0,507,200,7,5,490,814,0,142,0,122,31,High
P106_Exp6,C1,19,F,3,18,72,11,3,15,1,878.103556736278,201,0,505,183,0,394,426,11,5,263,810,0,165,0,145,31,High
P107_Exp6,C1,19,M,1,1,1,1,1,5,3,5592.83255670925,453,0,1295,0,17,29,80,59,9,1678,810,1015,228,264,56,31,High
P107_Exp6,C1,19,M,1,1,2,4,4,8,3,5423.32185577106,464,NA,1345,NA,0,NA,NA,44,NA,1628,812,510,600,247,465,31,High
P107_Exp6,C1,19,M,1,1,3,3,3,7,3,6048.51636404965,541,0,820,26,24,423,430,64,5,1815,809,558,252,145,0,31,High
P107_Exp6,C1,19,M,1,1,4,2,2,6,4,6413.90486292585,488,0,459,17,0,505,370,48,8,1925,808,1476,68,994,0,31,High
P107_Exp6,C1,19,M,1,2,5,1,1,5,1,6143.72135578014,339,0,1081,10,360,553,224,58,8,1843,811,1004,648,517,173,31,High
P107_Exp6,C1,19,M,1,2,6,2,2,6,1,3188.0120416281,323,0,941,33,13,294,266,37,9,956,811,609,561,250,149,31,High
P107_Exp6,C1,19,M,1,2,7,4,4,8,1,2979.75423511161,0,0,202,183,0,0,NA,15,5,894,809,785,616,573,220,31,High
P107_Exp6,C1,19,M,1,2,8,3,3,7,1,7958.45469190863,329,30,1197,10,60,248,380,92,11,2388,811,1783,508,680,346,31,High
P107_Exp6,C1,19,M,1,3,9,1,1,5,1,2312.29026687288,542,0,556,300,38,63,4,38,9,694,810,192,461,0,86,31,High
P107_Exp6,C1,19,M,1,3,10,2,2,6,1,2795.57787409613,694,0,184,106,0,0,NA,44,4,839,810,396,352,152,28,31,High
P107_Exp6,C1,19,M,1,3,11,3,3,7,1,3342.40490261982,375,0,125,0,0,280,427,40,10,1003,811,547,309,365,184,31,High
P107_Exp6,C1,19,M,1,3,12,4,4,8,1,2610.05614214446,250,16,210,170,0,30,233,29,10,783,811,508,416,204,207,31,High
P107_Exp6,C1,19,M,1,4,13,1,1,5,1,8338.35369702319,502,16,761,50,23,223,517,51,9,2502,811,1871,367,1289,29,31,High
P107_Exp6,C1,19,M,1,4,14,4,4,8,1,2468.22711986533,243,0,209,17,0,462,250,36,14,741,813,298,405,140,170,31,High
P107_Exp6,C1,19,M,1,4,15,3,3,7,1,2177.73113771545,137,0,473,73,23,583,310,29,13,653,810,439,245,180,0,31,High
P107_Exp6,C1,19,M,1,4,16,2,2,6,1,9852.64249023749,1368,0,697,97,38,440,356,129,6,2956,813,1603,470,701,189,31,High
P107_Exp6,C1,19,M,1,5,17,1,1,5,1,1767.97980947413,74,119,40,36,0,0,NA,16,13,530,811,419,474,240,208,31,High
P107_Exp6,C1,19,M,1,5,18,2,2,6,1,2585.66318154226,10,7,220,155,22,0,NA,23,20,776,812,662,369,431,27,31,High
P107_Exp6,C1,19,M,1,5,19,3,3,7,1,1787.52889136558,0,27,369,160,10,0,NA,16,19,536,811,427,361,196,102,31,High
P107_Exp6,C1,19,M,1,5,20,4,4,8,1,1341.46099978898,0,0,19,308,0,0,NA,13,24,403,811,310,232,147,41,31,High
P107_Exp6,C1,19,M,1,6,21,3,3,7,1,2727.98785091072,33,0,40,16,7,0,NA,36,4,818,810,637,487,284,280,31,High
P107_Exp6,C1,19,M,1,6,22,2,2,6,1,5211.57852127544,83,51,385,0,7,0,NA,70,5,1564,810,836,641,105,360,31,High
P107_Exp6,C1,19,M,1,6,23,1,1,5,1,1740.28032133174,0,0,524,98,0,17,740,19,13,522,812,263,579,59,221,31,High
P107_Exp6,C1,19,M,1,6,24,4,4,8,1,1784.33073002998,7,0,134,31,0,6,314,26,20,535,812,400,656,90,239,31,High
P107_Exp6,C1,19,M,2,7,25,7,3,11,1,3481.63615458907,604,0,898,197,0,120,827,62,12,1044,814,198,185,55,0,31,High
P107_Exp6,C1,19,M,2,7,26,8,4,12,3,4470.72497593399,143,0,333,197,0,273,443,36,10,1342,807,935,484,600,321,31,High
P107_Exp6,C1,19,M,2,7,27,6,2,10,1,3077.63910190624,469,26,620,0,0,203,300,47,5,923,811,368,580,130,279,31,High
P107_Exp6,C1,19,M,2,7,28,5,1,9,4,7450.29839947165,230,0,1747,0,48,727,7,87,16,2235,814,1138,516,530,122,31,High
P107_Exp6,C1,19,M,2,8,29,7,3,11,1,1049.5725572091,263,25,471,74,0,157,410,18,17,315,812,38,580,0,127,31,High
P107_Exp6,C1,19,M,2,8,30,6,2,10,4,7792.18531767765,887,92,1360,0,24,6,444,91,9,2338,809,1577,498,531,218,31,High
P107_Exp6,C1,19,M,2,8,31,5,1,9,4,7602.40500525106,1430,10,1170,0,0,590,160,77,5,2281,813,945,217,562,91,31,High
P107_Exp6,C1,19,M,2,8,32,8,4,12,2,2681.55310157454,196,0,699,30,0,337,483,26,2,804,814,449,379,172,312,31,High
P107_Exp6,C1,19,M,2,9,33,5,1,9,1,2351.7533742197,153,0,278,16,0,367,257,20,5,706,813,506,344,334,208,31,High
P107_Exp6,C1,19,M,2,9,34,7,3,11,1,1857.99982552817,225,0,466,40,0,433,324,32,6,557,811,232,273,26,232,31,High
P107_Exp6,C1,19,M,2,9,35,6,2,10,1,8329.54162303577,1181,0,1221,154,13,383,294,84,20,2500,804,1228,397,740,24,31,High
P107_Exp6,C1,19,M,2,9,36,8,4,12,1,1636.06433269888,173,0,526,14,0,334,263,11,4,491,813,267,290,239,196,31,High
P107_Exp6,C1,19,M,2,10,37,6,2,10,1,3807.3348524722,411,30,561,0,0,337,250,46,17,1142,812,756,321,445,132,31,High
P107_Exp6,C1,19,M,2,10,38,7,3,11,1,4088.3700726954,261,0,717,0,13,439,340,57,4,1226,812,592,167,247,98,31,High
P107_Exp6,C1,19,M,2,10,39,8,4,12,2,2636.92039551643,336,0,314,0,0,287,350,23,1,791,812,414,306,340,212,31,High
P107_Exp6,C1,19,M,2,10,40,5,1,9,1,1892.74130572448,297,0,265,13,0,392,206,24,16,568,810,231,299,58,129,31,High
P107_Exp6,C1,19,M,2,11,41,8,4,12,1,2422.14975001843,537,0,194,73,0,656,330,32,8,727,812,396,214,264,151,31,High
P107_Exp6,C1,19,M,2,11,42,6,2,10,1,4350.84388293762,997,0,794,0,0,163,620,58,8,1306,812,384,330,213,282,31,High
P107_Exp6,C1,19,M,2,11,43,5,1,9,1,5088.86089009502,565,0,1136,24,0,539,224,82,8,1527,812,547,330,261,145,31,High
P107_Exp6,C1,19,M,2,11,44,7,3,11,1,2246.2197853747102,64,0,508,99,573,406,253,37,9,674,810,121,215,0,139,31,High
P107_Exp6,C1,19,M,2,12,45,8,4,12,1,5063.43045138601,1052,0,665,46,0,337,487,67,9,1519,810,787,101,397,42,31,High
P107_Exp6,C1,19,M,2,12,46,7,3,11,1,4044.26532996877,214,0,2874,184,0,440,223,38,6,1214,810,102,383,0,379,31,High
P107_Exp6,C1,19,M,2,12,47,6,2,10,1,2179.88246342065,113,0,364,17,0,23,273,41,14,654,814,292,194,182,0,31,High
P107_Exp6,C1,19,M,2,12,48,5,1,9,1,1413.82426744894,83,0,93,0,0,207,200,23,9,424,809,213,288,28,195,31,High
P107_Exp6,C1,19,M,3,13,49,11,3,15,1,3295.16448268987,13,0,183,0,0,20,300,20,1,989,810,820,395,665,265,31,High
P107_Exp6,C1,19,M,3,13,50,9,1,13,1,1860.13062504389,171,0,92,0,0,243,107,21,12,558,810,425,635,274,508,31,High
P107_Exp6,C1,19,M,3,13,51,10,2,14,2,4778.55170230032,330,98,153,40,0,267,330,29,20,1434,810,1107,417,786,241,31,High
P107_Exp6,C1,19,M,3,13,52,12,4,16,1,1043.59822883271,110,0,154,0,0,0,NA,5,3,313,810,239,420,193,250,31,High
P107_Exp6,C1,19,M,3,14,53,11,3,15,1,6400.55197336733,1520,27,190,27,63,614,260,48,6,1920,813,1328,449,845,91,31,High
P107_Exp6,C1,19,M,3,14,54,12,4,16,1,1560.05102568997,276,0,185,0,0,0,NA,15,3,468,810,304,522,218,447,31,High
P107_Exp6,C1,19,M,3,14,55,9,1,13,1,1746.40587942486,72,16,184,0,0,46,337,26,7,524,808,113,434,0,302,31,High
P107_Exp6,C1,19,M,3,14,56,10,2,14,1,374.298072258171,NA,0,NA,10,NA,143,773,NA,12,112,811,100,336,86,165,31,High
P107_Exp6,C1,19,M,3,15,57,11,3,15,1,868.288275833038,27,0,70,17,0,424,250,13,10,261,812,212,482,84,217,31,High
P107_Exp6,C1,19,M,3,15,58,10,2,14,1,2362.11879773327,210,43,17,23,0,0,NA,15,5,708,809,569,673,441,608,31,High
P107_Exp6,C1,19,M,3,15,59,9,1,13,1,1092.31381765676,37,0,61,0,13,10,873,15,2,328,811,223,672,93,365,31,High
P107_Exp6,C1,19,M,3,15,60,12,4,16,1,898.314467855016,129,0,141,0,4,534,27,9,9,269,814,186,524,104,413,31,High
P107_Exp6,C1,19,M,3,16,61,11,3,15,1,990.286584838032,6,0,59,0,6,454,177,13,12,297,812,196,182,82,75,31,High
P107_Exp6,C1,19,M,3,16,62,10,2,14,1,2424.2871903607,135,0,33,0,0,312,236,13,9,727,810,651,657,540,540,31,High
P107_Exp6,C1,19,M,3,16,63,12,4,16,1,783.823008710897,94,7,150,0,0,292,260,7,3,235,814,178,310,92,170,31,High
P107_Exp6,C1,19,M,3,16,64,9,1,13,1,537.900853074461,63,93,0,0,0,205,190,4,10,161,812,112,310,69,85,31,High
P107_Exp6,C1,19,M,3,17,65,12,4,16,1,4332.26647460651,1269,0,237,0,0,190,613,39,3,1300,814,984,665,449,625,31,High
P107_Exp6,C1,19,M,3,17,66,9,1,13,1,2455.89148407635,149,7,347,70,13,0,NA,32,8,737,812,547,526,333,241,31,High
P107_Exp6,C1,19,M,3,17,67,10,2,14,1,3974.1484725655,0,NA,469,NA,47,NA,NA,64,NA,1193,811,575,617,195,537,31,High
P107_Exp6,C1,19,M,3,17,68,11,3,15,1,1040.39312481291,73,0,54,0,0,0,NA,8,2,312,810,270,747,160,709,31,High
P107_Exp6,C1,19,M,3,18,69,10,2,14,1,8776.24582646786,113,30,246,66,14,0,NA,39,4,2633,805,2342,756,2027,688,31,High
P107_Exp6,C1,19,M,3,18,70,12,4,16,1,1161.68569514957,103,0,0,96,0,0,NA,5,2,348,811,335,534,280,415,31,High
P107_Exp6,C1,19,M,3,18,71,11,3,15,1,2284.04291060178,0,10,40,224,0,0,NA,8,12,686,812,617,514,583,367,31,High
P107_Exp6,C1,19,M,3,18,72,9,1,13,1,929.909705899263,0,NA,0,NA,0,NA,NA,3,NA,279,808,258,706,200,617,31,High
P108_Exp6,C1,18,F,1,1,1,2,2,6,3,3484.14910344218,366,0,2606,296,0,123,470,8,3,1045,814,20,40,0,39,19,Low
P108_Exp6,C1,18,F,1,1,2,1,1,5,3,3791.57707840568,340,0,2973,510,0,450,536,9,2,1138,811,23,52,0,52,19,Low
P108_Exp6,C1,18,F,1,1,3,4,4,8,2,2593.25455100043,337,0,1862,257,196,160,276,9,2,778,806,0,58,0,35,19,Low
P108_Exp6,C1,18,F,1,1,4,3,3,7,1,2635.7839087359,397,213,1878,333,0,273,230,11,6,790,813,0,24,0,0,19,Low
P108_Exp6,C1,18,F,1,2,5,2,2,6,3,5115.60832530449,537,160,3710,714,0,0,NA,14,4,1534,815,131,44,131,44,19,Low
P108_Exp6,C1,18,F,1,2,6,4,4,8,3,5031.7929535413,400,180,4333,204,0,193,230,11,3,1510,805,0,52,0,46,19,Low
P108_Exp6,C1,18,F,1,2,7,1,1,5,3,4383.65167540542,334,0,3386,290,0,160,313,14,3,1316,813,42,77,42,77,19,Low
P108_Exp6,C1,18,F,1,2,8,3,3,7,1,2064.20229646028,453,0,1504,312,0,217,350,6,5,619,810,0,75,0,75,19,Low
P108_Exp6,C1,18,F,1,3,9,2,2,6,1,2573.7024505579,650,0,1777,157,0,176,220,7,3,772,812,0,61,0,58,19,Low
P108_Exp6,C1,18,F,1,3,10,3,3,7,3,4408.26861295136,580,370,3390,230,0,160,250,16,3,1323,811,0,102,0,94,19,Low
P108_Exp6,C1,18,F,1,3,11,1,1,5,4,5695.25039082873,403,130,4600,457,0,0,NA,15,3,1709,810,46,90,46,90,19,Low
P108_Exp6,C1,18,F,1,3,12,4,4,8,2,3364.68064721339,327,253,2550,227,0,0,NA,12,4,1010,804,0,34,0,33,19,Low
P108_Exp6,C1,18,F,1,4,13,3,3,7,1,1620.24860233214,414,440,915,130,0,0,NA,6,3,486,813,0,40,0,35,19,Low
P108_Exp6,C1,18,F,1,4,14,2,2,6,4,7373.11992939067,1167,126,5197,584,0,0,NA,21,5,2212,812,92,97,85,90,19,Low
P108_Exp6,C1,18,F,1,4,15,1,1,5,3,4117.87918586924,236,NA,3688,NA,0,NA,NA,8,NA,1235,813,1,110,0,105,19,Low
P108_Exp6,C1,18,F,1,4,16,4,4,8,1,1450.07321510639,176,0,1087,293,0,0,NA,6,2,435,814,0,37,0,37,19,Low
P108_Exp6,C1,18,F,1,5,17,2,2,6,1,1745.59690610113,1023,160,664,516,0,0,NA,3,3,524,810,0,34,0,28,19,Low
P108_Exp6,C1,18,F,1,5,18,3,3,7,1,2949.64322163287,480,559,2247,283,0,0,NA,8,2,885,813,0,339,0,326,19,Low
P108_Exp6,C1,18,F,1,5,19,4,4,8,1,1663.6980162948,450,250,1106,344,0,0,NA,4,2,499,810,0,49,0,49,19,Low
P108_Exp6,C1,18,F,1,5,20,1,1,5,1,1048.00743531086,220,0,767,340,0,293,367,3,2,314,814,0,205,0,197,19,Low
P108_Exp6,C1,18,F,1,6,21,3,3,7,1,2893.49594502346,660,616,1890,303,0,0,NA,9,2,868,811,44,263,44,255,19,Low
P108_Exp6,C1,18,F,1,6,22,4,4,8,2,8218.60240198657,1741,493,3624,283,0,0,NA,19,2,2466,808,680,87,668,82,19,Low
P108_Exp6,C1,18,F,1,6,23,1,1,5,1,2033.80784046021,246,63,1668,293,0,0,NA,6,2,610,814,0,149,0,148,19,Low
P108_Exp6,C1,18,F,1,6,24,2,2,6,1,1745.73757086546,400,150,1249,457,0,0,NA,4,4,523,810,0,91,0,80,19,Low
P108_Exp6,C1,18,F,2,7,25,5,1,9,1,2175.92966278971,443,317,1454,544,0,0,NA,4,2,653,811,0,22,0,0,19,Low
P108_Exp6,C1,18,F,2,7,26,6,2,10,1,2081.50889221724,280,353,1403,347,0,154,206,6,4,625,814,81,21,81,0,19,Low
P108_Exp6,C1,18,F,2,7,27,7,3,11,1,1134.37590273679,430,517,633,323,0,0,NA,4,2,340,814,0,60,0,55,19,Low
P108_Exp6,C1,18,F,2,7,28,8,4,12,1,1074.40894386673,187,0,576,213,0,683,240,3,2,323,811,28,38,28,34,19,Low
P108_Exp6,C1,18,F,2,8,29,6,2,10,2,3955.57196980008,547,0,3198,177,0,509,470,8,3,1187,807,0,110,0,108,19,Low
P108_Exp6,C1,18,F,2,8,30,7,3,11,1,1006.12344510591,0,0,446,184,0,283,220,2,4,302,812,0,86,0,84,19,Low
P108_Exp6,C1,18,F,2,8,31,8,4,12,2,2832.53618269009,430,387,2148,227,0,0,NA,6,3,850,809,0,186,0,181,19,Low
P108_Exp6,C1,18,F,2,8,32,5,1,9,1,1408.02893951332,150,0,756,389,0,0,NA,5,1,422,812,0,189,0,165,19,Low
P108_Exp6,C1,18,F,2,9,33,8,4,12,1,2503.72988018353,643,0,1649,313,0,654,340,9,2,751,812,0,87,0,82,19,Low
P108_Exp6,C1,18,F,2,9,34,5,1,9,1,923.891004727921,350,320,526,520,0,0,NA,2,3,277,812,0,58,0,51,19,Low
P108_Exp6,C1,18,F,2,9,35,7,3,11,1,2071.69284610791,506,280,1449,320,0,294,346,6,4,621,812,0,43,0,43,19,Low
P108_Exp6,C1,18,F,2,9,36,6,2,10,1,542.212862012093,146,0,360,321,0,517,363,3,4,163,811,0,34,0,33,19,Low
P108_Exp6,C1,18,F,2,10,37,5,1,9,1,1462.59841628489,183,0,987,330,0,0,NA,4,1,439,810,0,37,0,33,19,Low
P108_Exp6,C1,18,F,2,10,38,8,4,12,1,1653.9954679356,420,0,1114,600,0,0,NA,5,6,497,812,0,114,0,106,19,Low
P108_Exp6,C1,18,F,2,10,39,6,2,10,1,1444.23441994149,260,0,1127,244,0,240,270,4,4,433,815,0,229,0,224,19,Low
P108_Exp6,C1,18,F,2,10,40,7,3,11,1,451.520915132278,253,0,0,253,0,520,333,1,3,136,813,0,232,0,220,19,Low
P108_Exp6,C1,18,F,2,11,41,6,2,10,1,3248.08978154761,1349,0,1763,274,0,483,300,6,2,975,809,0,49,0,49,19,Low
P108_Exp6,C1,18,F,2,11,42,7,3,11,1,1285.7716383005,494,314,770,450,0,0,NA,2,3,385,813,0,70,0,68,19,Low
P108_Exp6,C1,18,F,2,11,43,5,1,9,1,1739.83538600442,357,423,1269,371,0,0,NA,4,6,522,812,0,82,0,73,19,Low
P108_Exp6,C1,18,F,2,11,44,8,4,12,1,1151.72626757339,326,0,780,483,0,0,NA,3,2,345,813,0,455,0,444,19,Low
P108_Exp6,C1,18,F,2,12,45,7,3,11,1,958.295010233996,343,0,584,160,0,0,NA,3,3,288,811,0,77,0,70,19,Low
P108_Exp6,C1,18,F,2,12,46,5,1,9,1,1497.73230891515,193,0,1062,357,0,0,NA,5,1,449,809,0,97,0,52,19,Low
P108_Exp6,C1,18,F,2,12,47,6,2,10,1,2213.69392615088,320,330,1750,414,0,0,NA,6,5,664,810,0,51,0,40,19,Low
P108_Exp6,C1,18,F,2,12,48,8,4,12,1,910.254672649899,190,0,644,379,0,0,NA,3,2,273,810,0,0,0,0,19,Low
P108_Exp6,C1,18,F,3,13,49,11,3,15,2,2652.2287064181,363,40,2144,382,0,140,414,7,5,795,808,0,135,0,125,19,Low
P108_Exp6,C1,18,F,3,13,50,9,1,13,3,4035.17192645086,550,313,3036,113,0,0,NA,11,2,1211,813,0,50,0,50,19,Low
P108_Exp6,C1,18,F,3,13,51,12,4,16,1,1697.80107164843,300,0,840,720,0,0,NA,3,1,509,810,105,41,105,41,19,Low
P108_Exp6,C1,18,F,3,13,52,10,2,14,1,1903.75300233063,190,117,736,354,0,176,380,4,3,572,812,248,71,241,56,19,Low
P108_Exp6,C1,18,F,3,14,53,9,1,13,3,4210.39554871459,927,0,2932,300,0,0,NA,11,1,1263,811,0,42,0,40,19,Low
P108_Exp6,C1,18,F,3,14,54,11,3,15,1,2738.31584431537,547,0,1936,300,0,427,323,11,2,822,812,0,40,0,39,19,Low
P108_Exp6,C1,18,F,3,14,55,10,2,14,1,1494.10249389985,544,176,825,737,0,0,NA,5,3,448,810,0,0,0,0,19,Low
P108_Exp6,C1,18,F,3,14,56,12,4,16,1,308.019612170028,57,340,193,0,0,0,NA,2,2,92,812,0,49,0,49,19,Low
P108_Exp6,C1,18,F,3,15,57,11,3,15,1,1528.09507006168,650,510,800,334,0,0,NA,4,2,458,810,0,47,0,43,19,Low
P108_Exp6,C1,18,F,3,15,58,9,1,13,1,2875.78999414836,1014,0,1589,327,0,203,390,9,4,863,811,0,95,0,93,19,Low
P108_Exp6,C1,18,F,3,15,59,10,2,14,1,1378.18054050877,387,516,820,326,0,0,NA,5,2,413,810,0,88,0,80,19,Low
P108_Exp6,C1,18,F,3,15,60,12,4,16,1,763.822048811562,334,0,384,266,0,0,NA,2,1,229,810,0,461,0,461,19,Low
P108_Exp6,C1,18,F,3,16,61,11,3,15,1,1143.49496398791,397,0,690,337,0,323,364,3,3,343,810,0,140,0,138,19,Low
P108_Exp6,C1,18,F,3,16,62,10,2,14,1,977.519899082836,280,0,673,330,0,0,NA,2,1,293,811,0,43,0,42,19,Low
P108_Exp6,C1,18,F,3,16,63,12,4,16,1,1460.26024188905,349,0,1034,143,0,0,NA,2,2,438,810,0,60,0,57,19,Low
P108_Exp6,C1,18,F,3,16,64,9,1,13,1,811.617581406608,321,0,360,324,0,570,347,4,2,244,810,0,99,0,47,19,Low
P108_Exp6,C1,18,F,3,17,65,11,3,15,1,1193.59908912156,320,196,799,261,0,317,330,5,4,358,810,0,226,0,189,19,Low
P108_Exp6,C1,18,F,3,17,66,9,1,13,1,1475.64130002138,217,383,1043,523,0,0,NA,5,2,443,811,0,145,0,145,19,Low
P108_Exp6,C1,18,F,3,17,67,12,4,16,1,1042.29240099448,240,0,678,734,0,0,NA,5,4,312,811,0,73,0,73,19,Low
P108_Exp6,C1,18,F,3,17,68,10,2,14,1,1146.34297269367,393,0,626,914,0,0,NA,4,4,344,810,0,141,0,139,19,Low
P108_Exp6,C1,18,F,3,18,69,11,3,15,1,1102.14374912539,336,0,740,776,0,0,NA,2,9,330,813,0,180,0,174,19,Low
P108_Exp6,C1,18,F,3,18,70,12,4,16,1,1323.58238744564,303,0,817,286,0,557,320,4,2,397,812,1,344,0,344,19,Low
P108_Exp6,C1,18,F,3,18,71,10,2,14,1,1454.24878525591,306,0,863,276,0,0,NA,6,4,436,812,38,308,33,299,19,Low
P108_Exp6,C1,18,F,3,18,72,9,1,13,1,1869.61915769643,320,0,1440,726,0,107,830,3,2,561,813,0,27,0,27,19,Low
P109_Exp6,C1,18,F,1,1,1,2,2,6,4,8171.00156633023,520,0,6296,130,0,577,220,38,6,2452,812,48,91,48,91,18,Low
P109_Exp6,C1,18,F,1,1,2,3,3,7,3,4906.55875123775,745,0,2291,404,0,203,483,26,8,1472,807,73,50,48,45,18,Low
P109_Exp6,C1,18,F,1,1,3,1,1,5,3,7047.54197379225,933,266,4668,191,0,260,333,45,5,2114,810,91,95,91,95,18,Low
P109_Exp6,C1,18,F,1,1,4,4,4,8,1,2896.17763122442,607,0,1460,193,0,607,233,12,3,869,809,0,99,0,96,18,Low
P109_Exp6,C1,18,F,1,2,5,2,2,6,1,5035.27636852959,837,0,2728,166,0,436,253,36,6,1510,813,109,42,98,40,18,Low
P109_Exp6,C1,18,F,1,2,6,4,4,8,3,8115.3100918491,969,0,4716,361,0,167,383,44,4,2435,809,162,91,152,85,18,Low
P109_Exp6,C1,18,F,1,2,7,3,3,7,2,3534.17202938726,507,197,1738,161,0,147,410,19,7,1061,813,39,64,37,64,18,Low
P109_Exp6,C1,18,F,1,2,8,1,1,5,1,3290.25962912056,1341,0,1303,277,0,113,544,16,5,987,812,0,54,0,52,18,Low
P109_Exp6,C1,18,F,1,3,9,2,2,6,1,2087.92966520195,307,120,1205,197,0,0,NA,13,5,626,813,43,22,43,0,18,Low
P109_Exp6,C1,18,F,1,3,10,1,1,5,2,10908.4661775196,5400,380,3531,200,0,147,246,47,4,3273,812,205,71,201,66,18,Low
P109_Exp6,C1,18,F,1,3,11,3,3,7,1,2665.9444265533202,280,0,1761,554,0,0,NA,22,9,800,813,42,64,42,59,18,Low
P109_Exp6,C1,18,F,1,3,12,4,4,8,1,1167.67964414976,227,0,720,117,0,143,273,5,7,351,813,0,199,0,188,18,Low
P109_Exp6,C1,18,F,1,4,13,2,2,6,1,1294.03765529423,303,0,829,405,0,226,477,11,7,388,811,0,132,0,130,18,Low
P109_Exp6,C1,18,F,1,4,14,1,1,5,3,9819.59260948497,910,353,6625,0,0,0,NA,60,5,2947,812,220,67,211,42,18,Low
P109_Exp6,C1,18,F,1,4,15,3,3,7,1,3323.6249490983,623,520,1426,373,14,0,NA,23,5,998,811,133,53,133,52,18,Low
P109_Exp6,C1,18,F,1,4,16,4,4,8,1,2416.34566826542,247,0,1184,0,0,0,NA,12,2,725,814,143,110,134,110,18,Low
P109_Exp6,C1,18,F,1,5,17,3,3,7,1,2512.03332728619,384,0,724,150,0,0,NA,19,7,753,811,66,60,66,45,18,Low
P109_Exp6,C1,18,F,1,5,18,1,1,5,1,1534.49712799193,277,0,1068,458,0,80,410,10,9,461,813,0,118,0,118,18,Low
P109_Exp6,C1,18,F,1,5,19,4,4,8,1,993.640503726056,210,0,377,274,0,0,NA,6,5,298,810,0,104,0,99,18,Low
P109_Exp6,C1,18,F,1,5,20,2,2,6,1,1403.96656525263,323,137,887,224,0,0,NA,12,9,421,812,0,136,0,136,18,Low
P109_Exp6,C1,18,F,1,6,21,3,3,7,1,1197.98505270956,247,0,320,216,0,0,NA,9,2,359,814,0,110,0,110,18,Low
P109_Exp6,C1,18,F,1,6,22,1,1,5,1,1631.60169775801,390,183,867,217,0,0,NA,10,5,490,814,0,46,0,40,18,Low
P109_Exp6,C1,18,F,1,6,23,4,4,8,1,3695.93801815427,834,0,1871,213,0,0,NA,20,1,1109,810,104,258,98,258,18,Low
P109_Exp6,C1,18,F,1,6,24,2,2,6,1,1653.89796853924,257,0,1059,177,0,447,390,16,6,496,813,0,101,0,75,18,Low
P109_Exp6,C1,18,F,2,7,25,5,1,9,1,4382.03765287835,1047,0,2152,196,0,544,240,14,3,1315,814,178,53,176,48,18,Low
P109_Exp6,C1,18,F,2,7,26,6,2,10,1,3128.40006508122,1060,0,1488,174,0,623,227,18,5,939,810,48,49,48,45,18,Low
P109_Exp6,C1,18,F,2,7,27,8,4,12,1,4948.16593974974,1861,0,1743,213,0,244,586,18,4,1484,809,94,52,94,52,18,Low
P109_Exp6,C1,18,F,2,7,28,7,3,11,1,1127.96810954751,330,217,661,0,0,0,NA,8,4,339,810,0,50,0,50,18,Low
P109_Exp6,C1,18,F,2,8,29,8,4,12,1,6243.36211728587,2609,0,1242,0,60,423,17,21,5,1873,811,358,67,354,67,18,Low
P109_Exp6,C1,18,F,2,8,30,7,3,11,1,3332.13486551176,822,77,1500,159,0,557,387,18,6,1000,814,57,125,57,106,18,Low
P109_Exp6,C1,18,F,2,8,31,6,2,10,1,4174.22055570933,327,0,1113,17,1688,435,240,34,5,1252,811,56,126,56,117,18,Low
P109_Exp6,C1,18,F,2,8,32,5,1,9,1,1609.81707241808,216,0,760,0,0,763,114,12,3,483,811,7,73,0,46,18,Low
P109_Exp6,C1,18,F,2,9,33,7,3,11,1,2696.25104253282,707,0,750,303,206,280,53,14,3,809,810,128,136,103,118,18,Low
P109_Exp6,C1,18,F,2,9,34,6,2,10,1,2798.33019453508,320,0,434,223,347,500,3,15,9,840,814,95,160,92,156,18,Low
P109_Exp6,C1,18,F,2,9,35,5,1,9,1,2133.82380862822,387,0,1078,556,0,0,NA,8,6,640,813,62,45,58,45,18,Low
P109_Exp6,C1,18,F,2,9,36,8,4,12,1,1369.89248804821,486,0,217,0,0,124,3,6,1,411,813,58,70,58,68,18,Low
P109_Exp6,C1,18,F,2,10,37,5,1,9,1,4760.47145033226,2229,446,610,0,0,190,620,16,5,1428,811,155,144,154,143,18,Low
P109_Exp6,C1,18,F,2,10,38,6,2,10,1,2131.74040046215,500,0,668,0,0,0,NA,12,2,639,814,126,133,126,129,18,Low
P109_Exp6,C1,18,F,2,10,39,7,3,11,1,2663.93286004313,377,0,1532,430,0,0,NA,11,1,799,810,101,46,99,44,18,Low
P109_Exp6,C1,18,F,2,10,40,8,4,12,1,4422.4736412034,1116,0,1699,176,0,340,386,16,6,1327,812,255,140,247,135,18,Low
P109_Exp6,C1,18,F,2,11,41,5,1,9,1,2424.25398623163,510,0,1228,136,0,340,300,9,4,727,811,42,107,42,106,18,Low
P109_Exp6,C1,18,F,2,11,42,8,4,12,1,1994.04046255222,383,0,474,92,0,0,NA,8,8,599,810,99,151,99,147,18,Low
P109_Exp6,C1,18,F,2,11,43,7,3,11,1,1947.29961383564,450,0,719,0,0,293,487,15,3,584,809,37,86,37,56,18,Low
P109_Exp6,C1,18,F,2,11,44,6,2,10,1,583.421299121255,310,213,220,0,0,0,NA,4,3,175,814,0,130,0,129,18,Low
P109_Exp6,C1,18,F,2,12,45,7,3,11,1,2543.69104946454,280,0,1061,190,0,0,NA,15,5,763,810,137,284,134,274,18,Low
P109_Exp6,C1,18,F,2,12,46,5,1,9,1,4010.8339035869,1506,0,1466,190,0,0,NA,13,4,1204,810,161,344,161,343,18,Low
P109_Exp6,C1,18,F,2,12,47,6,2,10,1,6427.34981847752,1304,190,3345,143,0,126,367,49,9,1928,811,162,226,162,221,18,Low
P109_Exp6,C1,18,F,2,12,48,8,4,12,1,2683.69867434012,550,0,1588,164,0,0,NA,17,4,805,814,0,173,0,156,18,Low
P109_Exp6,C1,18,F,3,13,49,12,4,16,1,1579.78514513525,214,0,1019,169,0,390,343,5,6,474,810,0,187,0,180,18,Low
P109_Exp6,C1,18,F,3,13,50,10,2,14,1,1415.62453495135,553,0,587,152,0,116,377,12,4,425,814,0,88,0,76,18,Low
P109_Exp6,C1,18,F,3,13,51,11,3,15,1,3663.70405341149,2066,0,486,137,569,0,NA,10,5,1099,810,0,149,0,149,18,Low
P109_Exp6,C1,18,F,3,13,52,9,1,13,1,2277.95810302996,414,0,467,166,0,307,226,10,3,683,810,0,102,0,101,18,Low
P109_Exp6,C1,18,F,3,14,53,12,4,16,1,2915.31860418399,906,0,1247,0,0,253,336,11,3,875,814,51,0,43,0,18,Low
P109_Exp6,C1,18,F,3,14,54,11,3,15,1,2720.13477254222,750,0,644,0,540,150,247,11,1,816,813,126,122,126,122,18,Low
P109_Exp6,C1,18,F,3,14,55,10,2,14,1,2443.91747143891,856,0,547,190,523,0,NA,16,2,734,810,60,154,53,154,18,Low
P109_Exp6,C1,18,F,3,14,56,9,1,13,1,2916.10614575256,1729,0,701,181,0,654,240,12,7,875,813,55,118,55,108,18,Low
P109_Exp6,C1,18,F,3,15,57,12,4,16,1,3498.78880392862,1077,0,1254,254,0,140,327,17,4,1050,814,68,173,68,165,18,Low
P109_Exp6,C1,18,F,3,15,58,10,2,14,1,1639.04757276396,369,17,710,73,0,560,233,16,7,492,812,0,42,0,42,18,Low
P109_Exp6,C1,18,F,3,15,59,11,3,15,1,1493.57877422881,511,0,499,116,0,413,450,12,8,448,810,0,45,0,45,18,Low
P109_Exp6,C1,18,F,3,15,60,9,1,13,1,643.788820532791,0,0,270,170,0,480,224,4,3,193,810,0,42,0,42,18,Low
P109_Exp6,C1,18,F,3,16,61,10,2,14,1,4074.09531577287,1549,0,1223,0,0,300,236,37,6,1222,812,61,196,61,175,18,Low
P109_Exp6,C1,18,F,3,16,62,11,3,15,1,2631.76952953654,819,0,797,174,0,0,NA,29,5,790,814,0,176,0,169,18,Low
P109_Exp6,C1,18,F,3,16,63,12,4,16,1,1623.80808496528,319,0,876,186,177,0,NA,9,1,487,811,0,307,0,297,18,Low
P109_Exp6,C1,18,F,3,16,64,9,1,13,1,1776.75626448763,834,193,517,253,0,0,NA,9,5,533,811,0,339,0,339,18,Low
P109_Exp6,C1,18,F,3,17,65,10,2,14,1,932.060126036959,374,0,294,103,0,474,410,10,6,279,814,0,91,0,91,18,Low
P109_Exp6,C1,18,F,3,17,66,12,4,16,1,1902.48037862693,286,226,460,0,0,116,797,10,7,571,813,47,31,47,31,18,Low
P109_Exp6,C1,18,F,3,17,67,11,3,15,1,1067.97217252461,270,76,378,0,44,130,277,10,6,320,813,6,117,0,116,18,Low
P109_Exp6,C1,18,F,3,17,68,9,1,13,1,691.81346161713,0,0,183,67,219,506,147,5,7,208,810,0,51,0,49,18,Low
P109_Exp6,C1,18,F,3,18,69,12,4,16,1,3373.85374063888,740,0,1858,427,0,0,NA,27,9,1013,811,49,103,48,103,18,Low
P109_Exp6,C1,18,F,3,18,70,10,2,14,1,1415.50741493484,306,0,580,71,0,130,514,17,8,425,814,61,82,59,57,18,Low
P109_Exp6,C1,18,F,3,18,71,9,1,13,1,1064.42416041318,486,0,322,176,0,460,227,8,3,320,807,0,73,0,72,18,Low
P109_Exp6,C1,18,F,3,18,72,11,3,15,1,1016.0544982391,369,0,335,0,0,700,27,12,3,305,813,0,194,0,161,18,Low
P110_Exp6,C1,20,M,1,1,1,3,3,7,1,20144.4693542508,3613,0,8196,140,0,724,270,318,5,6044,811,972,0,255,0,23,High
P110_Exp6,C1,20,M,1,1,2,1,1,5,1,8952.72033882793,3536,57,2651,0,143,477,293,96,13,2686,813,320,20,116,0,23,High
P110_Exp6,C1,20,M,1,1,3,4,4,8,1,3170.46788542211,743,41,1619,0,0,536,277,29,9,951,813,101,29,39,0,23,High
P110_Exp6,C1,20,M,1,1,4,2,2,6,1,6164.33478092949,981,96,2552,140,0,573,190,59,7,1850,809,635,2,457,0,23,High
P110_Exp6,C1,20,M,1,2,5,3,3,7,1,9015.74026643357,2113,20,4051,140,0,358,217,73,10,2705,814,349,2,225,0,23,High
P110_Exp6,C1,20,M,1,2,6,2,2,6,2,2981.15544935717,552,323,1634,163,0,317,216,20,6,894,805,0,0,0,0,23,High
P110_Exp6,C1,20,M,1,2,7,4,4,8,1,1849.59012521358,343,143,1330,144,0,123,333,6,13,555,814,0,94,0,79,23,High
P110_Exp6,C1,20,M,1,2,8,1,1,5,1,608.004730685934,220,161,139,169,0,493,227,4,9,182,812,0,111,0,111,23,High
P110_Exp6,C1,20,M,1,3,9,3,3,7,1,2370.27463738923,0,0,994,290,0,0,NA,16,7,712,812,278,326,260,278,23,High
P110_Exp6,C1,20,M,1,3,10,4,4,8,2,5467.56182986428,1112,0,2589,260,0,0,NA,46,3,1640,814,140,188,113,176,23,High
P110_Exp6,C1,20,M,1,3,11,1,1,5,1,1914.01881345882,466,0,818,484,0,0,NA,20,16,574,809,4,48,0,43,23,High
P110_Exp6,C1,20,M,1,3,12,2,2,6,1,679.494126037753,343,176,269,310,0,0,NA,4,6,204,810,0,165,0,144,23,High
P110_Exp6,C1,20,M,1,4,13,1,1,5,4,10075.0156738577,2732,0,3503,134,0,600,286,65,10,3023,811,563,217,401,174,23,High
P110_Exp6,C1,20,M,1,4,14,2,2,6,1,4119.99881672455,1702,0,1260,448,0,0,NA,20,14,1236,811,166,295,132,263,23,High
P110_Exp6,C1,20,M,1,4,15,4,4,8,1,2019.58892684343,970,0,924,455,0,0,NA,6,7,606,814,0,273,0,245,23,High
P110_Exp6,C1,20,M,1,4,16,3,3,7,1,892.419527528546,660,134,170,633,0,0,NA,3,5,268,810,0,177,0,167,23,High
P110_Exp6,C1,20,M,1,5,17,4,4,8,1,4600.40128699256,1861,0,1378,171,123,330,250,28,6,1381,812,128,209,122,161,23,High
P110_Exp6,C1,20,M,1,5,18,3,3,7,1,1569.60807958967,796,217,700,167,0,0,NA,6,12,471,813,0,218,0,164,23,High
P110_Exp6,C1,20,M,1,5,19,1,1,5,1,3341.62007775012,1770,0,1142,364,0,0,NA,25,7,1003,811,0,123,0,61,23,High
P110_Exp6,C1,20,M,1,5,20,2,2,6,1,463.538093135867,380,0,17,423,0,260,550,3,10,139,810,2,37,0,37,23,High
P110_Exp6,C1,20,M,1,6,21,3,3,7,1,4971.60956411608,2458,10,877,387,39,0,NA,27,4,1491,812,287,301,280,256,23,High
P110_Exp6,C1,20,M,1,6,22,4,4,8,1,3716.1732180939,1299,0,639,0,0,167,673,54,5,1115,814,158,253,156,216,23,High
P110_Exp6,C1,20,M,1,6,23,2,2,6,1,1777.84868033268,1157,0,415,409,0,0,NA,11,4,533,811,6,296,0,289,23,High
P110_Exp6,C1,20,M,1,6,24,1,1,5,1,523.644207492907,78,276,260,264,0,0,NA,11,16,157,812,0,411,0,386,23,High
P110_Exp6,C1,20,M,2,7,25,6,2,10,1,8338.3195873248,4072,0,2647,307,0,533,207,39,4,2502,812,234,0,207,0,23,High
P110_Exp6,C1,20,M,2,7,26,7,3,11,1,4526.15866562701,1937,230,1862,207,0,0,NA,18,3,1358,811,0,35,0,33,23,High
P110_Exp6,C1,20,M,2,7,27,5,1,9,2,3928.8178937677,900,249,2121,569,0,0,NA,13,8,1179,810,54,53,52,49,23,High
P110_Exp6,C1,20,M,2,7,28,8,4,12,2,3126.51316498523,844,190,1363,317,0,236,437,13,5,938,810,178,58,161,56,23,High
P110_Exp6,C1,20,M,2,8,29,7,3,11,3,5590.87381495192,1073,0,2558,246,0,250,360,42,2,1678,811,304,0,293,0,23,High
P110_Exp6,C1,20,M,2,8,30,6,2,10,3,3232.66646361662,550,0,2093,254,0,0,NA,9,2,970,814,0,305,0,301,23,High
P110_Exp6,C1,20,M,2,8,31,8,4,12,2,927.649108423793,297,10,333,500,0,0,NA,6,8,278,810,0,243,0,199,23,High
P110_Exp6,C1,20,M,2,8,32,5,1,9,1,427.622696046456,0,0,300,0,0,0,NA,2,2,128,810,27,668,27,661,23,High
P110_Exp6,C1,20,M,2,9,33,8,4,12,3,4524.90566254346,232,135,1976,170,0,174,340,42,9,1357,811,360,0,240,0,23,High
P110_Exp6,C1,20,M,2,9,34,6,2,10,1,2226.46936571982,755,51,1020,356,0,0,NA,16,4,668,811,0,110,0,77,23,High
P110_Exp6,C1,20,M,2,9,35,7,3,11,1,1610.29309888545,590,571,669,243,0,10,937,9,4,483,810,0,0,0,0,23,High
P110_Exp6,C1,20,M,2,9,36,5,1,9,1,1115.83079296543,632,7,347,237,0,0,NA,5,3,335,814,0,292,0,255,23,High
P110_Exp6,C1,20,M,2,10,37,8,4,12,1,1558.34101304572,493,0,670,360,0,0,NA,7,3,467,811,0,530,0,515,23,High
P110_Exp6,C1,20,M,2,10,38,7,3,11,1,1081.90371949604,297,10,370,297,0,0,NA,21,5,325,814,5,189,0,171,23,High
P110_Exp6,C1,20,M,2,10,39,6,2,10,1,2944.26807685522,630,0,1723,270,0,17,317,34,3,883,808,0,334,0,299,23,High
P110_Exp6,C1,20,M,2,10,40,5,1,9,1,468.286283587076,6,337,346,100,0,167,553,6,5,141,813,2,333,0,265,23,High
P110_Exp6,C1,20,M,2,11,41,7,3,11,1,4417.69798188398,2850,180,406,197,144,253,247,49,5,1325,810,115,293,80,216,23,High
P110_Exp6,C1,20,M,2,11,42,5,1,9,2,3418.33278445847,553,34,835,0,0,0,NA,20,1,1026,813,513,387,508,362,23,High
P110_Exp6,C1,20,M,2,11,43,6,2,10,1,754.000267443189,330,0,364,231,0,0,NA,3,2,226,807,0,400,0,359,23,High
P110_Exp6,C1,20,M,2,11,44,8,4,12,1,373.509323264443,237,0,24,277,0,0,NA,2,9,113,811,0,651,0,641,23,High
P110_Exp6,C1,20,M,2,12,45,5,1,9,1,2459.58076466559,880,0,572,203,0,33,260,22,5,738,810,154,272,138,230,23,High
P110_Exp6,C1,20,M,2,12,46,7,3,11,1,1290.04651898504,674,10,567,313,0,0,NA,4,2,387,812,4,278,0,217,23,High
P110_Exp6,C1,20,M,2,12,47,6,2,10,1,936.280672689463,573,0,307,370,0,0,NA,4,4,281,813,0,194,0,162,23,High
P110_Exp6,C1,20,M,2,12,48,8,4,12,1,691.490174143837,250,0,324,220,0,120,270,2,6,208,811,0,476,0,469,23,High
P110_Exp6,C1,20,M,3,13,49,10,2,14,4,5848.31086067788,1286,226,3329,431,0,0,NA,29,5,1755,809,13,0,0,0,23,High
P110_Exp6,C1,20,M,3,13,50,11,3,15,2,9135.72308480798,5411,0,1461,323,0,537,396,25,2,2741,813,386,0,353,0,23,High
P110_Exp6,C1,20,M,3,13,51,9,1,13,2,3185.11603786828,1573,500,1085,47,0,23,764,13,7,956,813,0,0,0,0,23,High
P110_Exp6,C1,20,M,3,13,52,12,4,16,1,972.084081306093,320,13,359,257,0,0,NA,5,2,291,812,0,233,0,220,23,High
P110_Exp6,C1,20,M,3,14,53,9,1,13,3,7242.8679794757,2520,627,3651,180,0,0,NA,29,11,2173,811,28,89,0,81,23,High
P110_Exp6,C1,20,M,3,14,54,11,3,15,1,1338.397164247,529,494,660,120,0,0,NA,6,2,402,812,0,138,0,130,23,High
P110_Exp6,C1,20,M,3,14,55,10,2,14,1,1741.66674464504,637,133,881,244,0,0,NA,6,6,523,811,0,111,0,106,23,High
P110_Exp6,C1,20,M,3,14,56,12,4,16,1,977.832621607377,540,27,254,367,0,0,NA,5,7,293,810,0,283,0,271,23,High
P110_Exp6,C1,20,M,3,15,57,11,3,15,1,1658.05754034227,526,0,987,206,0,137,360,5,2,498,811,27,434,0,415,23,High
P110_Exp6,C1,20,M,3,15,58,9,1,13,1,1287.61175076215,687,0,512,332,0,0,NA,4,5,386,812,0,269,0,259,23,High
P110_Exp6,C1,20,M,3,15,59,10,2,14,1,1317.88154034439,930,0,343,687,0,0,NA,2,5,396,813,0,43,0,35,23,High
P110_Exp6,C1,20,M,3,15,60,12,4,16,1,1347.77883997594,587,0,686,270,0,0,NA,3,1,404,809,0,299,0,282,23,High
P110_Exp6,C1,20,M,3,16,61,11,3,15,1,1040.25698788246,550,0,444,824,0,0,NA,3,1,312,812,0,234,0,228,23,High
P110_Exp6,C1,20,M,3,16,62,9,1,13,1,1359.55332598314,591,387,626,330,0,0,NA,9,7,407,811,0,0,0,0,23,High
P110_Exp6,C1,20,M,3,16,63,12,4,16,1,1396.0896402823,663,0,654,343,0,0,NA,3,9,419,809,0,192,0,177,23,High
P110_Exp6,C1,20,M,3,16,64,10,2,14,1,1172.34874840142,367,0,546,420,0,180,474,8,2,352,812,0,467,0,467,23,High
P110_Exp6,C1,20,M,3,17,65,9,1,13,1,1547.42017501121,558,0,673,259,0,0,NA,8,3,464,809,12,188,0,175,23,High
P110_Exp6,C1,20,M,3,17,66,12,4,16,1,1551.65460702847,534,0,920,663,0,0,NA,4,2,466,813,0,80,0,77,23,High
P110_Exp6,C1,20,M,3,17,67,10,2,14,1,994.208294330747,390,0,547,793,0,0,NA,4,5,298,811,0,54,0,52,23,High
P110_Exp6,C1,20,M,3,17,68,11,3,15,1,2003.54710654574,1089,0,777,347,0,163,553,5,3,601,813,0,36,0,36,23,High
P110_Exp6,C1,20,M,3,18,69,9,1,13,1,2397.63151929219,410,283,1591,230,0,0,NA,13,4,719,809,2,93,0,90,23,High
P110_Exp6,C1,20,M,3,18,70,11,3,15,1,1215.70670008077,510,0,651,397,0,536,446,5,4,365,814,0,18,0,0,23,High
P110_Exp6,C1,20,M,3,18,71,10,2,14,1,967.665517302521,350,0,540,383,0,0,NA,3,1,290,813,0,4,0,0,23,High
P110_Exp6,C1,20,M,3,18,72,12,4,16,1,1771.63648964779,1343,0,350,500,0,413,567,3,4,532,812,0,175,0,166,23,High
P111_Exp6,C1,17,M,1,1,1,2,2,6,2,9162.47867012135,1323,0,3669,177,0,607,193,18,2,2749,810,791,0,755,0,22,Low
P111_Exp6,C1,17,M,1,1,2,4,4,8,2,9673.45520053641,2613,440,5423,186,0,284,210,23,3,2903,812,39,4,39,0,22,Low
P111_Exp6,C1,17,M,1,1,3,3,3,7,2,3710.90643951538,416,0,2939,230,0,244,243,8,3,1114,810,0,96,0,96,22,Low
P111_Exp6,C1,17,M,1,1,4,1,1,5,2,5972.01314521226,926,0,3504,207,0,256,227,19,2,1792,807,82,42,79,29,22,Low
P111_Exp6,C1,17,M,1,2,5,4,4,8,1,2992.42281775514,681,150,1609,193,0,240,216,14,4,898,811,0,128,0,126,22,Low
P111_Exp6,C1,17,M,1,2,6,1,1,5,2,4473.3127850086,430,103,3786,196,0,360,214,10,3,1342,807,1,62,0,59,22,Low
P111_Exp6,C1,17,M,1,2,7,3,3,7,1,2496.16205547136,1473,0,497,287,0,267,300,5,4,749,810,54,216,53,192,22,Low
P111_Exp6,C1,17,M,1,2,8,2,2,6,3,6445.22873267852,3232,33,2713,229,0,293,250,11,3,1934,811,21,83,0,81,22,Low
P111_Exp6,C1,17,M,1,3,9,4,4,8,1,4539.95407566981,720,86,1595,200,0,137,230,11,5,1362,812,441,115,436,112,22,Low
P111_Exp6,C1,17,M,1,3,10,3,3,7,3,5878.63468243813,1796,261,3771,284,0,27,403,10,5,1764,811,1,88,0,82,22,Low
P111_Exp6,C1,17,M,1,3,11,2,2,6,2,3468.58723373953,733,0,2262,230,0,240,280,11,3,1041,813,0,408,0,375,22,Low
P111_Exp6,C1,17,M,1,3,12,1,1,5,1,1593.94429131862,240,23,1276,220,0,0,NA,5,5,478,811,0,115,0,88,22,Low
P111_Exp6,C1,17,M,1,4,13,3,3,7,1,5591.74255570906,1639,46,1997,220,0,120,230,16,3,1676,811,318,298,311,297,22,Low
P111_Exp6,C1,17,M,1,4,14,4,4,8,1,3120.08303447146,656,224,1566,490,0,0,NA,10,6,936,813,162,47,159,47,22,Low
P111_Exp6,C1,17,M,1,4,15,1,1,5,1,2507.57582389269,947,0,1396,184,0,197,203,9,3,753,811,1,58,0,57,22,Low
P111_Exp6,C1,17,M,1,4,16,2,2,6,1,2519.74664645968,1197,391,1003,0,0,0,NA,7,5,756,813,0,42,0,42,22,Low
P111_Exp6,C1,17,M,1,5,17,3,3,7,1,1971.7363435193,677,386,557,213,0,167,226,6,5,592,812,81,58,76,53,22,Low
P111_Exp6,C1,17,M,1,5,18,1,1,5,1,1726.32704074931,207,0,1427,263,0,0,NA,4,9,518,811,2,630,0,618,22,Low
P111_Exp6,C1,17,M,1,5,19,4,4,8,1,6938.18779712092,1450,0,2147,597,0,0,NA,21,3,2082,812,403,0,400,0,22,Low
P111_Exp6,C1,17,M,1,5,20,2,2,6,1,1812.28739924336,1393,700,156,0,0,0,NA,4,1,544,810,0,52,0,47,22,Low
P111_Exp6,C1,17,M,1,6,21,3,3,7,1,2522.29219573201,2513,990,0,0,0,0,NA,1,1,756,812,0,44,0,41,22,Low
P111_Exp6,C1,17,M,1,6,22,4,4,8,1,1837.79541487093,1836,NA,0,NA,0,NA,NA,1,NA,552,812,0,67,0,62,22,Low
P111_Exp6,C1,17,M,1,6,23,1,1,5,1,1813.79607412237,1809,NA,0,NA,0,NA,NA,1,NA,544,809,0,0,0,0,22,Low
P111_Exp6,C1,17,M,1,6,24,2,2,6,1,2262.06419203299,2257,217,0,0,0,0,NA,2,1,679,810,0,0,0,0,22,Low
P111_Exp6,C1,17,M,2,7,25,8,4,12,1,3697.88528939534,1643,0,1632,181,0,716,207,11,3,1109,815,0,48,0,48,22,Low
P111_Exp6,C1,17,M,2,7,26,6,2,10,3,7838.44108425546,3287,0,3587,353,0,287,223,20,4,2352,812,101,146,94,139,22,Low
P111_Exp6,C1,17,M,2,7,27,5,1,9,1,1827.3418494864,1277,603,244,0,0,0,NA,5,2,549,815,2,152,0,144,22,Low
P111_Exp6,C1,17,M,2,7,28,7,3,11,2,5355.47223666799,670,0,3261,413,0,183,200,13,3,1607,822,0,55,0,51,22,Low
P111_Exp6,C1,17,M,2,8,29,6,2,10,1,1623.71300041195,1180,627,383,0,0,0,NA,4,2,487,817,0,90,0,85,22,Low
P111_Exp6,C1,17,M,2,8,30,8,4,12,1,1831.68193100573,1444,304,0,0,0,453,510,8,3,549,824,81,68,78,50,22,Low
P111_Exp6,C1,17,M,2,8,31,5,1,9,1,1773.3308057941,1239,502,250,0,0,0,NA,5,3,532,812,0,159,0,144,22,Low
P111_Exp6,C1,17,M,2,8,32,7,3,11,1,1871.93590033348,1856,210,0,0,0,640,337,3,3,561,812,0,93,0,78,22,Low
P111_Exp6,C1,17,M,2,9,33,8,4,12,1,1408.29789295458,909,442,436,163,0,0,NA,4,10,423,811,0,261,0,260,22,Low
P111_Exp6,C1,17,M,2,9,34,7,3,11,1,1583.61297750162,1427,632,0,0,0,0,NA,4,3,475,819,0,0,0,0,22,Low
P111_Exp6,C1,17,M,2,9,35,6,2,10,1,1977.97268266004,1680,807,0,0,0,0,NA,6,1,594,810,75,145,74,124,22,Low
P111_Exp6,C1,17,M,2,9,36,5,1,9,1,1523.56149902698,1517,NA,0,NA,0,NA,NA,2,NA,457,822,0,0,0,0,22,Low
P111_Exp6,C1,17,M,2,10,37,7,3,11,2,3692.07667980299,2239,507,826,0,0,0,NA,10,2,1107,817,0,269,0,253,22,Low
P111_Exp6,C1,17,M,2,10,38,6,2,10,1,3192.08588640322,642,340,1711,173,0,0,NA,8,6,958,821,66,82,64,76,22,Low
P111_Exp6,C1,17,M,2,10,39,8,4,12,1,1271.47575147683,1106,717,0,0,0,0,NA,10,2,381,818,2,54,0,49,22,Low
P111_Exp6,C1,17,M,2,10,40,5,1,9,1,1965.53683077582,1963,450,0,0,0,0,NA,1,3,590,814,0,0,0,0,22,Low
P111_Exp6,C1,17,M,2,11,41,7,3,11,1,4337.02190959229,4142,NA,0,NA,0,NA,NA,5,NA,1301,813,0,89,0,80,22,Low
P111_Exp6,C1,17,M,2,11,42,5,1,9,1,1813.54855243626,1796,894,0,0,0,0,NA,5,1,544,810,0,119,0,118,22,Low
P111_Exp6,C1,17,M,2,11,43,6,2,10,1,1261.83297055468,1073,601,0,0,0,0,NA,3,6,379,810,0,101,0,95,22,Low
P111_Exp6,C1,17,M,2,11,44,8,4,12,1,1268.14990517232,1257,190,0,76,0,0,NA,1,7,380,814,0,53,0,45,22,Low
P111_Exp6,C1,17,M,2,12,45,7,3,11,1,3864.45048222959,3400,620,220,0,0,0,NA,9,2,1160,809,0,76,0,57,22,Low
P111_Exp6,C1,17,M,2,12,46,5,1,9,1,1462.25007478279,1454,347,0,0,0,0,NA,3,1,439,810,0,0,0,0,22,Low
P111_Exp6,C1,17,M,2,12,47,8,4,12,1,1749.70546428085,1746,937,0,0,0,0,NA,1,1,525,814,0,13,0,0,22,Low
P111_Exp6,C1,17,M,2,12,48,6,2,10,1,983.970857643726,211,636,0,0,0,0,NA,10,2,295,814,72,63,30,62,22,Low
P111_Exp6,C1,17,M,3,13,49,9,1,13,1,1487.67900421444,1272,620,0,0,0,123,810,5,5,447,812,0,95,0,82,22,Low
P111_Exp6,C1,17,M,3,13,50,12,4,16,1,1413.68420639628,1378,NA,0,NA,0,NA,NA,4,NA,424,809,0,67,0,63,22,Low
P111_Exp6,C1,17,M,3,13,51,11,3,15,1,1405.9953375363,1196,557,190,0,0,0,NA,2,3,422,812,0,108,0,102,22,Low
P111_Exp6,C1,17,M,3,13,52,10,2,14,1,1000.33687098039,546,381,353,0,0,0,NA,4,3,300,813,0,0,0,0,22,Low
P111_Exp6,C1,17,M,3,14,53,11,3,15,1,1257.78387794708,630,0,530,70,0,460,4,5,3,378,811,0,58,0,58,22,Low
P111_Exp6,C1,17,M,3,14,54,10,2,14,1,1088.11953244731,880,468,0,150,0,0,NA,5,7,326,812,0,89,0,88,22,Low
P111_Exp6,C1,17,M,3,14,55,9,1,13,1,1366.20411302647,836,20,400,17,56,510,4,6,8,410,814,1,123,0,107,22,Low
P111_Exp6,C1,17,M,3,14,56,12,4,16,1,1065.88061424918,676,0,290,0,0,327,606,3,3,319,814,1,4,0,0,22,Low
P111_Exp6,C1,17,M,3,15,57,10,2,14,1,4017.12970830704,2211,140,920,0,0,347,433,19,7,1206,813,188,91,169,75,22,Low
P111_Exp6,C1,17,M,3,15,58,9,1,13,1,1881.33689482856,660,817,732,0,0,0,NA,10,1,564,810,24,83,0,83,22,Low
P111_Exp6,C1,17,M,3,15,59,12,4,16,1,1319.9468371713,1306,763,0,0,0,0,NA,3,4,396,812,0,0,0,0,22,Low
P111_Exp6,C1,17,M,3,15,60,11,3,15,1,1347.65538098509,1169,120,0,0,0,0,NA,5,2,404,810,0,0,0,0,22,Low
P111_Exp6,C1,17,M,3,16,61,9,1,13,1,1213.45576198655,1087,813,0,0,0,0,NA,11,4,364,809,0,107,0,92,22,Low
P111_Exp6,C1,17,M,3,16,62,12,4,16,1,1533.80104870666,581,10,0,154,0,0,NA,13,13,460,814,2,11,0,0,22,Low
P111_Exp6,C1,17,M,3,16,63,11,3,15,1,1345.80621285568,70,0,0,0,0,0,NA,10,3,403,810,35,70,0,70,22,Low
P111_Exp6,C1,17,M,3,16,64,10,2,14,1,1181.80981218393,107,741,734,0,0,0,NA,5,7,355,813,5,287,0,282,22,Low
P111_Exp6,C1,17,M,3,17,65,11,3,15,1,1377.97467490964,1343,533,0,0,0,270,720,3,4,413,810,0,129,0,129,22,Low
P111_Exp6,C1,17,M,3,17,66,12,4,16,1,1165.61796959286,0,0,0,0,0,0,NA,5,2,350,814,0,96,0,83,22,Low
P111_Exp6,C1,17,M,3,17,67,9,1,13,1,1320.36883146429,173,0,83,0,0,0,NA,8,1,396,813,134,96,0,95,22,Low
P111_Exp6,C1,17,M,3,17,68,10,2,14,1,771.999923934345,485,260,0,0,0,0,NA,4,14,232,812,0,306,0,287,22,Low
P111_Exp6,C1,17,M,3,18,69,9,1,13,1,1913.61583607431,1310,197,217,0,0,0,NA,6,3,574,809,1,47,0,40,22,Low
P111_Exp6,C1,17,M,3,18,70,11,3,15,1,989.835310538183,807,783,130,0,0,0,NA,4,6,297,812,0,52,0,49,22,Low
P111_Exp6,C1,17,M,3,18,71,12,4,16,1,1199.92568312227,1187,53,0,0,0,0,NA,2,1,360,813,0,0,0,0,22,Low
P111_Exp6,C1,17,M,3,18,72,10,2,14,1,922.297206536314,900,675,0,0,0,0,NA,2,5,277,812,0,242,0,224,22,Low
P112_Exp6,C1,23,M,1,1,1,4,4,8,3,6156.02378744006,277,0,5070,240,0,333,277,16,3,1847,807,0,0,0,0,11,Low
P112_Exp6,C1,23,M,1,1,2,2,2,6,2,3284.96296683079,320,0,2283,487,0,0,NA,13,7,985,809,112,138,112,128,11,Low
P112_Exp6,C1,23,M,1,1,3,3,3,7,2,2764.43270292657,267,186,2217,204,0,270,250,8,5,830,809,0,56,0,56,11,Low
P112_Exp6,C1,23,M,1,1,4,1,1,5,2,3509.56022338505,420,167,2672,337,0,246,250,11,4,1053,806,0,0,0,0,11,Low
P112_Exp6,C1,23,M,1,2,5,2,2,6,3,6085.76837825967,401,84,4949,194,0,213,247,22,7,1826,808,0,125,0,102,11,Low
P112_Exp6,C1,23,M,1,2,6,1,1,5,2,5244.84121030764,2302,213,2443,307,0,127,250,22,8,1574,805,0,157,0,156,11,Low
P112_Exp6,C1,23,M,1,2,7,4,4,8,2,6164.05314954682,297,0,4765,246,0,196,294,18,3,1849,805,153,164,153,137,11,Low
P112_Exp6,C1,23,M,1,2,8,3,3,7,3,4894.420830944,553,20,3912,224,0,0,NA,13,3,1468,806,0,104,0,72,11,Low
P112_Exp6,C1,23,M,1,3,9,4,4,8,1,1736.36163039191,636,57,916,207,0,170,253,6,4,521,813,0,265,0,254,11,Low
P112_Exp6,C1,23,M,1,3,10,1,1,5,2,3244.40231209519,869,0,1893,247,0,0,NA,10,2,973,810,0,226,0,222,11,Low
P112_Exp6,C1,23,M,1,3,11,2,2,6,4,6084.26513677841,730,0,4665,393,0,57,223,17,6,1826,808,0,239,0,238,11,Low
P112_Exp6,C1,23,M,1,3,12,3,3,7,2,3377.25203232185,511,70,2383,250,0,0,NA,10,6,1013,807,0,197,0,189,11,Low
P112_Exp6,C1,23,M,1,4,13,4,4,8,1,1323.91865471072,267,425,906,200,0,0,NA,5,5,397,812,0,295,0,294,11,Low
P112_Exp6,C1,23,M,1,4,14,2,2,6,1,3247.70431179786,1390,34,1444,273,0,0,NA,13,2,974,809,1,238,0,228,11,Low
P112_Exp6,C1,23,M,1,4,15,1,1,5,1,2254.39011410344,640,199,1176,453,0,0,NA,10,5,677,812,0,310,0,302,11,Low
P112_Exp6,C1,23,M,1,4,16,3,3,7,1,1717.59737337197,400,13,1080,241,0,0,NA,7,5,515,814,0,330,0,311,11,Low
P112_Exp6,C1,23,M,1,5,17,4,4,8,1,1647.87866365805,543,106,667,256,0,0,NA,6,3,494,809,0,292,0,292,11,Low
P112_Exp6,C1,23,M,1,5,18,2,2,6,1,1615.83124574827,480,490,845,236,0,0,NA,7,6,485,814,0,50,0,49,11,Low
P112_Exp6,C1,23,M,1,5,19,3,3,7,1,3087.55234555792,947,150,1620,380,0,0,NA,11,5,926,812,0,85,0,85,11,Low
P112_Exp6,C1,23,M,1,5,20,1,1,5,1,1908.29532718271,724,43,939,394,0,0,NA,9,5,573,811,0,92,0,92,11,Low
P112_Exp6,C1,23,M,1,6,21,3,3,7,1,3592.08757679517,1646,24,1292,550,0,0,NA,14,4,1078,811,32,147,32,146,11,Low
P112_Exp6,C1,23,M,1,6,22,1,1,5,1,7890.02068013724,2929,170,3177,463,0,0,NA,25,4,2367,812,325,263,322,263,11,Low
P112_Exp6,C1,23,M,1,6,23,2,2,6,1,941.935939572431,267,0,536,333,0,0,NA,5,4,282,810,0,53,0,53,11,Low
P112_Exp6,C1,23,M,1,6,24,4,4,8,1,1121.94729538896,333,272,716,356,0,0,NA,3,9,337,812,0,337,0,313,11,Low
P112_Exp6,C1,23,M,2,7,25,8,4,12,3,5059.06290099665,1450,206,2916,280,0,0,NA,14,3,1518,811,66,64,59,63,11,Low
P112_Exp6,C1,23,M,2,7,26,5,1,9,1,2560.12709333299,1127,0,1133,253,0,523,303,11,2,768,811,0,193,0,193,11,Low
P112_Exp6,C1,23,M,2,7,27,6,2,10,4,8050.56264396626,1583,0,5345,211,0,490,276,20,8,2415,814,55,159,54,158,11,Low
P112_Exp6,C1,23,M,2,7,28,7,3,11,1,2121.79757495323,1074,50,650,307,0,474,253,9,6,636,812,0,61,0,53,11,Low
P112_Exp6,C1,23,M,2,8,29,8,4,12,4,6160.20207429028,1454,436,4024,173,0,0,NA,19,4,1849,811,2,231,0,226,11,Low
P112_Exp6,C1,23,M,2,8,30,5,1,9,1,2697.81374958984,1060,100,1096,294,0,276,380,6,4,810,809,105,163,105,163,11,Low
P112_Exp6,C1,23,M,2,8,31,7,3,11,1,1575.63342158392,880,50,553,496,0,0,NA,6,5,473,811,0,255,0,251,11,Low
P112_Exp6,C1,23,M,2,8,32,6,2,10,1,1146.27505515818,317,220,577,270,0,0,NA,4,6,343,810,0,76,0,70,11,Low
P112_Exp6,C1,23,M,2,9,33,7,3,11,1,3618.10271002832,1916,230,1168,0,0,500,4,9,3,1086,813,51,263,51,263,11,Low
P112_Exp6,C1,23,M,2,9,34,5,1,9,1,1961.502227241,1088,276,446,0,87,510,13,6,4,588,811,34,226,34,208,11,Low
P112_Exp6,C1,23,M,2,9,35,8,4,12,1,3196.7966467455,1495,0,977,0,0,530,186,12,3,960,809,25,14,0,0,11,Low
P112_Exp6,C1,23,M,2,9,36,6,2,10,2,10637.8661094823,2471,348,6319,163,0,357,216,35,7,3192,808,174,95,169,95,11,Low
P112_Exp6,C1,23,M,2,10,37,8,4,12,1,3749.92400782139,1480,0,1627,480,0,417,526,14,2,1125,814,18,0,0,0,11,Low
P112_Exp6,C1,23,M,2,10,38,6,2,10,2,3087.88378313329,1184,276,1530,124,0,243,180,10,7,927,807,0,111,0,111,11,Low
P112_Exp6,C1,23,M,2,10,39,7,3,11,1,830.317543161073,356,0,400,230,0,0,NA,3,3,249,810,0,29,0,29,11,Low
P112_Exp6,C1,23,M,2,10,40,5,1,9,1,1248.06623680342,344,0,807,146,0,487,87,5,3,375,814,0,116,0,113,11,Low
P112_Exp6,C1,23,M,2,11,41,8,4,12,1,1160.24342852324,223,0,656,439,0,0,NA,3,3,348,811,0,477,0,477,11,Low
P112_Exp6,C1,23,M,2,11,42,5,1,9,1,1427.64201481623,486,340,816,283,0,0,NA,6,5,429,810,0,377,0,377,11,Low
P112_Exp6,C1,23,M,2,11,43,7,3,11,1,2540.38331450283,942,44,730,453,0,213,237,13,5,762,812,155,165,153,116,11,Low
P112_Exp6,C1,23,M,2,11,44,6,2,10,1,2854.23749585243,1505,0,946,209,0,276,274,9,8,857,812,0,279,0,278,11,Low
P112_Exp6,C1,23,M,2,12,45,8,4,12,1,1606.31735721472,830,204,480,480,0,0,NA,4,4,482,812,0,515,0,515,11,Low
P112_Exp6,C1,23,M,2,12,46,7,3,11,2,5454.79604967477,2142,84,2080,166,0,354,210,18,3,1636,813,50,246,45,239,11,Low
P112_Exp6,C1,23,M,2,12,47,6,2,10,1,1302.41264219876,303,0,367,390,0,0,NA,5,6,390,813,51,581,51,581,11,Low
P112_Exp6,C1,23,M,2,12,48,5,1,9,1,1049.77117827002,110,0,667,170,0,357,213,3,2,315,814,1,175,0,172,11,Low
P112_Exp6,C1,23,M,3,13,49,10,2,14,2,7033.3973166853,2376,0,3644,217,0,597,280,19,6,2110,814,56,204,56,204,11,Low
P112_Exp6,C1,23,M,3,13,50,12,4,16,1,1199.81761877716,423,133,693,196,0,504,240,3,6,360,814,0,56,0,54,11,Low
P112_Exp6,C1,23,M,3,13,51,11,3,15,1,864.110290833196,470,0,360,340,0,153,607,2,4,259,810,0,240,0,197,11,Low
P112_Exp6,C1,23,M,3,13,52,9,1,13,1,351.529397274135,146,493,160,0,0,0,NA,2,6,105,814,0,67,0,67,11,Low
P112_Exp6,C1,23,M,3,14,53,11,3,15,1,1602.34735080667,684,0,720,20,0,523,207,3,4,480,813,36,12,36,0,11,Low
P112_Exp6,C1,23,M,3,14,54,9,1,13,1,1571.68092281063,277,0,912,373,0,494,93,5,4,472,812,0,92,0,92,11,Low
P112_Exp6,C1,23,M,3,14,55,12,4,16,1,5053.50271866337,2268,0,1684,157,0,0,NA,21,1,1516,813,163,79,138,79,11,Low
P112_Exp6,C1,23,M,3,14,56,10,2,14,1,1572.2420725906,524,0,686,0,0,640,3,4,1,472,812,18,376,0,376,11,Low
P112_Exp6,C1,23,M,3,15,57,9,1,13,1,1339.6305467104,527,0,712,104,0,164,153,3,2,402,812,0,103,0,102,11,Low
P112_Exp6,C1,23,M,3,15,58,10,2,14,1,1623.66228864994,350,216,1110,0,0,519,4,6,5,487,811,0,218,0,212,11,Low
P112_Exp6,C1,23,M,3,15,59,11,3,15,1,816.285780088947,254,260,414,0,0,497,166,5,3,245,814,0,0,0,0,11,Low
P112_Exp6,C1,23,M,3,15,60,12,4,16,1,984.053566106013,521,507,367,0,0,369,13,4,5,296,813,0,0,0,0,11,Low
P112_Exp6,C1,23,M,3,16,61,10,2,14,2,2909.61836079441,1227,44,1407,260,0,0,NA,8,3,873,811,0,132,0,131,11,Low
P112_Exp6,C1,23,M,3,16,62,9,1,13,1,1121.67622895504,227,0,810,260,0,596,353,4,4,336,812,0,325,0,325,11,Low
P112_Exp6,C1,23,M,3,16,63,11,3,15,1,3326.44760192125,1429,180,1153,147,0,537,190,11,4,998,811,0,58,0,58,11,Low
P112_Exp6,C1,23,M,3,16,64,12,4,16,1,1049.77963023339,407,0,316,401,0,363,203,5,5,315,814,0,21,0,0,11,Low
P112_Exp6,C1,23,M,3,17,65,10,2,14,1,1249.97366308889,501,143,550,0,0,450,133,4,9,375,814,0,186,0,171,11,Low
P112_Exp6,C1,23,M,3,17,66,9,1,13,1,1290.38671037779,410,0,713,0,0,626,180,5,4,387,812,0,71,0,66,11,Low
P112_Exp6,C1,23,M,3,17,67,12,4,16,1,4120.52464938461,1624,0,1762,120,0,470,174,17,4,1237,812,95,79,95,75,11,Low
P112_Exp6,C1,23,M,3,17,68,11,3,15,1,931.703936290432,207,0,276,0,0,0,NA,4,1,280,814,0,4,0,0,11,Low
P112_Exp6,C1,23,M,3,18,69,10,2,14,1,791.90791226938,254,0,424,140,0,623,197,4,3,237,811,0,324,0,322,11,Low
P112_Exp6,C1,23,M,3,18,70,11,3,15,1,1394.01830634233,256,299,744,250,0,103,300,8,5,418,811,0,216,0,214,11,Low
P112_Exp6,C1,23,M,3,18,71,12,4,16,1,1372.04019148703,278,0,720,303,0,0,NA,5,3,411,812,0,143,0,143,11,Low
P112_Exp6,C1,23,M,3,18,72,9,1,13,1,717.707550709747,266,173,333,0,0,293,183,4,9,215,814,0,365,0,362,11,Low
P113_Exp6,C1,25,F,1,1,1,1,1,5,2,9714.44582761819,1768,0,5790,193,0,327,247,37,4,2915,810,213,64,198,40,26,High
P113_Exp6,C1,25,F,1,1,2,3,3,7,1,3724.43124191022,700,0,1877,220,0,540,334,15,2,1117,812,82,62,81,37,26,High
P113_Exp6,C1,25,F,1,1,3,4,4,8,1,2191.70455972403,281,0,1033,206,0,357,250,8,3,658,811,88,78,88,76,26,High
P113_Exp6,C1,25,F,1,1,4,2,2,6,2,6786.84159051841,1135,0,3903,220,0,290,267,30,2,2036,813,140,76,97,76,26,High
P113_Exp6,C1,25,F,1,2,5,4,4,8,1,5057.86529470856,897,0,2865,190,57,416,233,22,4,1518,811,95,58,79,58,26,High
P113_Exp6,C1,25,F,1,2,6,2,2,6,2,4414.68507911054,427,0,3028,200,0,357,247,16,5,1325,809,130,78,121,69,26,High
P113_Exp6,C1,25,F,1,2,7,3,3,7,2,3672.63537662029,386,129,2442,224,146,174,273,15,4,1102,807,85,111,80,106,26,High
P113_Exp6,C1,25,F,1,2,8,1,1,5,1,1942.58266039446,304,0,1254,227,0,0,NA,8,1,582,811,0,115,0,110,26,High
P113_Exp6,C1,25,F,1,3,9,2,2,6,2,3289.24889641257,262,97,2342,206,0,116,264,11,7,987,807,39,124,39,100,26,High
P113_Exp6,C1,25,F,1,3,10,3,3,7,2,4494.74950737022,731,164,2808,186,0,0,NA,16,4,1349,810,109,108,84,106,26,High
P113_Exp6,C1,25,F,1,3,11,4,4,8,1,1210.18361329516,253,0,530,479,0,0,NA,4,3,363,810,27,68,27,47,26,High
P113_Exp6,C1,25,F,1,3,12,1,1,5,1,677.564090180113,140,247,441,16,0,200,470,4,5,204,810,0,87,0,87,26,High
P113_Exp6,C1,25,F,1,4,13,3,3,7,1,2473.60415499475,663,0,1048,564,0,0,NA,16,6,742,812,49,48,49,47,26,High
P113_Exp6,C1,25,F,1,4,14,1,1,5,1,3216.11962212387,615,228,1937,0,0,0,NA,8,11,965,814,39,97,39,73,26,High
P113_Exp6,C1,25,F,1,4,15,4,4,8,1,1503.52176023421,410,13,923,0,0,0,NA,7,1,451,813,0,100,0,81,26,High
P113_Exp6,C1,25,F,1,4,16,2,2,6,1,395.817536174491,0,326,390,0,0,299,683,1,12,119,810,0,105,0,100,26,High
P113_Exp6,C1,25,F,1,5,17,3,3,7,1,2002.06168015779,442,21,930,630,0,0,NA,10,4,601,813,52,101,36,88,26,High
P113_Exp6,C1,25,F,1,5,18,4,4,8,1,1834.28498638023,384,0,975,895,0,0,NA,8,4,550,813,35,72,35,47,26,High
P113_Exp6,C1,25,F,1,5,19,2,2,6,1,1002.24852935503,143,0,603,303,0,0,NA,4,4,301,813,0,42,0,41,26,High
P113_Exp6,C1,25,F,1,5,20,1,1,5,1,467.56460937354,0,796,197,0,0,0,NA,2,13,140,813,0,50,0,50,26,High
P113_Exp6,C1,25,F,1,6,21,3,3,7,1,1527.53142930283,543,0,850,665,0,0,NA,8,5,458,811,0,95,0,95,26,High
P113_Exp6,C1,25,F,1,6,22,4,4,8,1,3460.28745194462,1040,0,1647,0,0,183,40,12,6,1038,810,101,77,101,77,26,High
P113_Exp6,C1,25,F,1,6,23,2,2,6,1,1170.28331047277,220,0,557,203,0,0,NA,8,1,351,813,0,229,0,229,26,High
P113_Exp6,C1,25,F,1,6,24,1,1,5,1,981.995464907413,277,0,177,197,239,472,270,6,5,294,814,0,180,0,180,26,High
P113_Exp6,C1,25,F,2,7,25,8,4,12,1,6017.7198843769,954,0,3314,180,90,604,227,29,5,1805,814,225,82,224,59,26,High
P113_Exp6,C1,25,F,2,7,26,6,2,10,2,4848.08737660114,748,0,2636,442,0,127,263,19,6,1454,805,165,111,139,111,26,High
P113_Exp6,C1,25,F,2,7,27,5,1,9,1,5688.29388269614,733,311,3398,513,0,0,NA,20,6,1706,813,257,86,256,85,26,High
P113_Exp6,C1,25,F,2,7,28,7,3,11,1,2523.67249531517,512,0,1446,256,0,87,560,10,3,758,811,96,96,93,94,26,High
P113_Exp6,C1,25,F,2,8,29,6,2,10,1,2704.06950910888,197,0,1520,746,0,0,NA,11,2,812,812,136,103,125,102,26,High
P113_Exp6,C1,25,F,2,8,30,7,3,11,1,11436.7049098778,1162,13,7152,203,0,286,254,38,4,3431,814,432,109,421,107,26,High
P113_Exp6,C1,25,F,2,8,31,5,1,9,1,3178.0452495027,775,0,1533,370,0,157,267,14,3,954,810,86,70,85,68,26,High
P113_Exp6,C1,25,F,2,8,32,8,4,12,1,1180.41150290742,124,151,623,100,0,267,146,7,6,354,810,0,148,0,141,26,High
P113_Exp6,C1,25,F,2,9,33,5,1,9,1,3862.30512141879,757,0,1896,0,0,573,130,16,7,1159,810,82,77,79,72,26,High
P113_Exp6,C1,25,F,2,9,34,6,2,10,1,2414.26006510437,394,0,1598,424,0,177,210,12,4,725,809,38,119,36,117,26,High
P113_Exp6,C1,25,F,2,9,35,7,3,11,1,3862.57950901222,697,0,2424,559,0,0,NA,16,4,1159,810,112,118,105,118,26,High
P113_Exp6,C1,25,F,2,9,36,8,4,12,1,7813.75361020423,693,361,1313,0,493,347,583,23,6,2344,810,893,100,834,96,26,High
P113_Exp6,C1,25,F,2,10,37,7,3,11,1,9841.81026988404,1687,0,5367,190,143,184,233,37,3,2953,811,396,123,383,119,26,High
P113_Exp6,C1,25,F,2,10,38,5,1,9,1,2693.79310511363,365,0,1721,283,0,0,NA,11,1,808,811,0,54,0,54,26,High
P113_Exp6,C1,25,F,2,10,39,8,4,12,1,1635.58973108206,477,0,743,594,0,0,NA,7,3,491,813,20,129,0,97,26,High
P113_Exp6,C1,25,F,2,10,40,6,2,10,1,1267.50435880831,274,0,742,266,0,220,700,4,4,381,813,47,117,47,117,26,High
P113_Exp6,C1,25,F,2,11,41,7,3,11,1,2043.70158221127,547,120,819,177,60,366,4,8,5,613,811,75,138,45,128,26,High
P113_Exp6,C1,25,F,2,11,42,6,2,10,1,2763.68044017931,237,0,1613,24,0,674,233,10,4,830,809,101,33,98,33,26,High
P113_Exp6,C1,25,F,2,11,43,8,4,12,1,2309.78329115396,857,0,1258,850,0,0,NA,13,3,693,811,0,92,0,92,26,High
P113_Exp6,C1,25,F,2,11,44,5,1,9,1,515.908745146135,0,0,203,184,126,690,257,3,3,154,814,0,55,0,55,26,High
P113_Exp6,C1,25,F,2,12,45,6,2,10,1,1321.5161529472,312,0,727,174,0,283,243,8,2,397,812,0,142,0,139,26,High
P113_Exp6,C1,25,F,2,12,46,7,3,11,1,998.267645325768,586,0,237,156,0,253,380,7,3,299,815,0,170,0,168,26,High
P113_Exp6,C1,25,F,2,12,47,8,4,12,1,1503.6141283349,417,201,847,351,0,0,NA,10,8,451,813,0,367,0,311,26,High
P113_Exp6,C1,25,F,2,12,48,5,1,9,1,1667.98648407166,283,0,1000,30,106,618,104,7,5,500,813,31,47,31,41,26,High
P113_Exp6,C1,25,F,3,13,49,9,1,13,1,3508.30467708579,596,231,1816,130,0,130,221,12,9,1052,812,126,73,121,73,26,High
P113_Exp6,C1,25,F,3,13,50,10,2,14,1,4824.43208710856,1839,190,1991,0,0,200,217,19,4,1448,811,150,149,150,145,26,High
P113_Exp6,C1,25,F,3,13,51,12,4,16,1,1457.54659457543,226,0,1063,17,0,0,NA,6,7,437,812,0,120,0,116,26,High
P113_Exp6,C1,25,F,3,13,52,11,3,15,1,1335.87154434645,156,0,630,0,84,661,3,7,3,400,813,0,180,0,178,26,High
P113_Exp6,C1,25,F,3,14,53,12,4,16,1,1650.30402990578,393,0,981,0,0,0,NA,6,6,495,814,0,118,0,110,26,High
P113_Exp6,C1,25,F,3,14,54,10,2,14,1,6793.91529664053,504,134,3769,0,116,370,210,27,4,2038,811,198,111,195,107,26,High
P113_Exp6,C1,25,F,3,14,55,9,1,13,1,1097.89177356424,433,0,373,246,0,17,370,6,6,329,809,0,90,0,90,26,High
P113_Exp6,C1,25,F,3,14,56,11,3,15,1,815.945390530032,207,0,360,0,0,463,190,5,4,245,814,38,189,38,175,26,High
P113_Exp6,C1,25,F,3,15,57,12,4,16,1,1745.59802609929,318,0,750,0,0,157,3,9,3,524,809,42,95,38,92,26,High
P113_Exp6,C1,25,F,3,15,58,9,1,13,1,2197.58140467138,311,224,1027,0,137,433,7,11,10,660,809,143,90,138,90,26,High
P113_Exp6,C1,25,F,3,15,59,10,2,14,1,614.395779803999,257,0,290,614,0,0,NA,2,4,184,810,0,131,0,114,26,High
P113_Exp6,C1,25,F,3,15,60,11,3,15,1,607.82224996592,297,0,174,0,0,543,163,4,4,183,811,0,295,0,284,26,High
P113_Exp6,C1,25,F,3,16,61,12,4,16,1,1329.43475552065,164,0,730,0,0,57,353,9,6,399,810,0,142,0,140,26,High
P113_Exp6,C1,25,F,3,16,62,9,1,13,1,1974.08320132126,309,0,790,181,112,0,NA,10,5,593,811,37,148,35,148,26,High
P113_Exp6,C1,25,F,3,16,63,10,2,14,1,2655.81653401068,705,0,957,0,0,343,217,13,5,797,812,141,145,132,143,26,High
P113_Exp6,C1,25,F,3,16,64,11,3,15,1,375.882628518411,0,0,289,227,0,146,430,3,8,113,811,8,224,0,220,26,High
P113_Exp6,C1,25,F,3,17,65,12,4,16,1,1167.86362846051,164,0,474,14,0,200,253,5,5,350,814,56,64,54,62,26,High
P113_Exp6,C1,25,F,3,17,66,10,2,14,1,1305.56635531184,307,0,797,0,0,443,203,7,2,392,812,0,87,0,87,26,High
P113_Exp6,C1,25,F,3,17,67,11,3,15,2,4903.05484854071,598,0,2662,197,0,0,NA,17,4,1471,813,161,99,157,99,26,High
P113_Exp6,C1,25,F,3,17,68,9,1,13,1,1019.73356934468,141,0,0,0,33,53,440,7,3,306,812,38,99,37,50,26,High
P113_Exp6,C1,25,F,3,18,69,11,3,15,1,3676.42790216951,197,0,2403,200,0,230,247,17,3,1103,811,116,129,92,128,26,High
P113_Exp6,C1,25,F,3,18,70,9,1,13,1,1435.715122288,380,107,794,17,0,0,NA,6,6,431,813,0,103,0,99,26,High
P113_Exp6,C1,25,F,3,18,71,12,4,16,1,1097.74718428207,453,0,436,0,0,20,793,8,4,330,810,0,34,0,27,26,High
P113_Exp6,C1,25,F,3,18,72,10,2,14,1,1223.76383710343,318,0,303,0,236,250,213,13,4,367,812,0,357,0,340,26,High
P114_Exp6,C1,19,M,1,1,1,4,4,8,4,7710.35476595239,924,0,5343,200,0,418,243,48,8,2314,811,114,64,107,59,28,High
P114_Exp6,C1,19,M,1,1,2,2,2,6,1,1961.37504105241,312,0,1156,320,0,322,254,15,6,589,810,26,103,26,93,28,High
P114_Exp6,C1,19,M,1,1,3,1,1,5,2,5258.98717471932,166,0,3701,210,0,323,277,31,5,1578,811,92,105,85,95,28,High
P114_Exp6,C1,19,M,1,1,4,3,3,7,3,7002.2497367811,1153,0,4263,206,0,246,264,44,3,2101,813,109,102,104,99,28,High
