subj,condition,age,sex,phase,block,trial,cue,resp,out,numResp,RT,AOI_cue_p1,AOI_cue_p2,AOI_resp_p1,AOI_resp_p2,AOI_out_p1,AOI_out_p2,tOutFix,nFix_p1,nFix_p2,samples_p1,samples_p2,raw_NA_p1,raw_NA_p2,post_interp_NA_p1,post_interp_NA_p2,ICU,ICU_medSplit
P101_Exp6,C1,19,F,1,1,1,1,1,5,2,5142.12034972104,710,746,3646,447,0,607,213,14,15,1543,812,0,0,0,0,21,Low
P101_Exp6,C1,19,F,1,1,2,2,2,6,1,2423.6352681649,943,350,1193,361,0,1156,387,9,15,727,812,43,0,43,0,21,Low
P101_Exp6,C1,19,F,1,1,3,3,3,7,1,3072.37597545526,623,781,2201,427,0,920,216,9,12,921,812,20,0,0,0,21,Low
P101_Exp6,C1,19,F,1,1,4,4,4,8,1,1829.8925504979,593,450,1080,586,0,987,313,6,8,549,810,7,0,0,0,21,Low
P101_Exp6,C1,19,F,1,2,5,2,2,6,1,1671.65447360128,564,280,770,889,120,747,367,6,17,502,812,0,34,0,34,21,Low
P101_Exp6,C1,19,F,1,2,6,4,4,8,1,2102.40122288855,200,0,1217,958,0,646,214,4,10,630,813,160,0,160,0,21,Low
P101_Exp6,C1,19,F,1,2,7,1,1,5,2,3603.81210886703,1303,380,1330,454,0,1264,363,11,15,1081,813,42,39,39,35,21,Low
P101_Exp6,C1,19,F,1,2,8,3,3,7,1,1747.96849323172,420,416,1022,683,0,870,180,5,17,524,809,30,71,30,71,21,Low
P101_Exp6,C1,19,F,1,3,9,2,2,6,1,1471.90121262543,563,0,811,449,0,683,240,8,15,441,812,0,359,0,353,21,Low
P101_Exp6,C1,19,F,1,3,10,4,4,8,1,1637.66642960724,307,610,914,367,0,863,680,4,17,491,813,40,0,36,0,21,Low
P101_Exp6,C1,19,F,1,3,11,3,3,7,1,1245.72930791123,460,394,310,224,0,1505,57,5,8,374,810,6,108,0,108,21,Low
P101_Exp6,C1,19,F,1,3,12,1,1,5,1,1221.85019856244,184,956,783,180,0,944,196,3,9,366,812,52,0,52,0,21,Low
P101_Exp6,C1,19,F,1,4,13,2,2,6,1,1711.91785105827,480,543,857,477,0,553,263,7,26,514,810,39,0,39,0,21,Low
P101_Exp6,C1,19,F,1,4,14,3,3,7,1,980.288950897261,303,334,33,392,0,1000,284,7,12,294,809,24,68,0,68,21,Low
P101_Exp6,C1,19,F,1,4,15,1,1,5,1,2358.18935695715,193,456,1864,409,0,287,180,6,9,708,811,0,301,0,298,21,Low
P101_Exp6,C1,19,F,1,4,16,4,4,8,1,6281.72803044663,897,661,3098,326,0,453,314,24,13,1884,810,480,213,447,195,21,Low
P101_Exp6,C1,19,F,1,5,17,1,1,5,1,2180.05821036633,497,200,1320,1235,0,574,453,5,10,654,810,85,0,82,0,21,Low
P101_Exp6,C1,19,F,1,5,18,2,2,6,1,783.788515617573,137,417,593,540,0,340,210,5,13,236,813,0,75,0,75,21,Low
P101_Exp6,C1,19,F,1,5,19,3,3,7,1,1063.95201418007,466,270,167,327,0,1427,256,4,13,319,809,0,88,0,88,21,Low
P101_Exp6,C1,19,F,1,5,20,4,4,8,1,2176.47032188967,753,801,650,600,0,886,234,4,8,653,811,146,0,142,0,21,Low
P101_Exp6,C1,19,F,1,6,21,2,2,6,2,3611.20492198171,917,477,1796,257,0,1220,193,7,12,1083,811,30,64,29,60,21,Low
P101_Exp6,C1,19,F,1,6,22,4,4,8,1,2884.39669984291,0,1123,1905,1120,0,220,277,9,12,865,813,62,0,54,0,21,Low
P101_Exp6,C1,19,F,1,6,23,3,3,7,1,1600.29636453868,343,0,774,2094,0,60,2650,7,20,480,814,33,0,29,0,21,Low
P101_Exp6,C1,19,F,1,6,24,1,1,5,1,1433.71069653216,317,470,824,972,0,697,479,6,10,431,813,0,0,0,0,21,Low
P101_Exp6,C1,19,F,2,7,25,6,2,10,1,4299.62581637591,1426,416,2594,782,0,1266,207,11,12,1290,813,9,0,0,0,21,Low
P101_Exp6,C1,19,F,2,7,26,8,4,12,2,3656.0384350214,950,393,2294,443,0,1383,243,9,11,1097,807,29,0,0,0,21,Low
P101_Exp6,C1,19,F,2,7,27,5,1,9,1,1765.82884872437,314,307,1153,953,0,999,220,5,13,530,813,13,0,0,0,21,Low
P101_Exp6,C1,19,F,2,7,28,7,3,11,1,1201.48894655051,390,337,650,344,0,1337,184,7,14,361,811,0,95,0,94,21,Low
P101_Exp6,C1,19,F,2,8,29,8,4,12,3,6730.97084893448,1132,961,3692,704,0,414,183,25,14,2019,802,0,53,0,53,21,Low
P101_Exp6,C1,19,F,2,8,30,5,1,9,1,1495.51861077532,300,546,889,965,0,500,213,4,15,448,810,49,48,49,48,21,Low
P101_Exp6,C1,19,F,2,8,31,6,2,10,1,1077.65366703575,186,470,754,832,0,629,254,4,16,323,811,0,0,0,0,21,Low
P101_Exp6,C1,19,F,2,8,32,7,3,11,1,1195.4904172045,216,393,616,107,0,327,157,10,14,359,810,0,345,0,345,21,Low
P101_Exp6,C1,19,F,2,9,33,5,1,9,1,1214.3710539566,0,432,993,1084,0,177,173,3,20,364,810,0,145,0,145,21,Low
P101_Exp6,C1,19,F,2,9,34,8,4,12,1,3005.94208183259,336,797,2520,234,0,463,184,11,16,902,812,0,142,0,142,21,Low
P101_Exp6,C1,19,F,2,9,35,6,2,10,1,1456.12549097257,260,156,416,174,0,1631,210,6,10,437,812,0,61,0,60,21,Low
P101_Exp6,C1,19,F,2,9,36,7,3,11,1,1503.53174282156,267,246,417,442,0,576,144,6,21,451,813,172,140,164,140,21,Low
P101_Exp6,C1,19,F,2,10,37,6,2,10,1,1621.70687621278,544,371,740,407,0,583,237,8,24,486,813,0,158,0,148,21,Low
P101_Exp6,C1,19,F,2,10,38,7,3,11,1,3334.57437367406,1200,0,929,179,0,340,203,16,11,1001,813,127,501,125,498,21,Low
P101_Exp6,C1,19,F,2,10,39,5,1,9,1,4904.51193729075,1122,34,2496,297,0,701,213,22,16,1471,813,116,259,110,225,21,Low
P101_Exp6,C1,19,F,2,10,40,8,4,12,1,2382.44729854875,653,690,1224,507,0,583,124,8,14,714,814,11,199,0,199,21,Low
P101_Exp6,C1,19,F,2,11,41,7,3,11,1,3320.28621002337,604,0,2312,653,0,510,166,17,17,997,812,0,245,0,239,21,Low
P101_Exp6,C1,19,F,2,11,42,8,4,12,1,1747.89333049989,0,1000,880,615,0,206,194,6,19,524,810,0,74,0,74,21,Low
P101_Exp6,C1,19,F,2,11,43,5,1,9,1,3552.04581485452,773,0,2169,402,0,990,357,12,9,1066,812,95,233,95,232,21,Low
P101_Exp6,C1,19,F,2,11,44,6,2,10,1,1074.03559272302,164,0,833,286,0,588,123,4,13,322,809,0,269,0,268,21,Low
P101_Exp6,C1,19,F,2,12,45,5,1,9,1,2164.06243396852,560,0,1044,153,0,614,123,6,13,650,807,73,163,68,140,21,Low
P101_Exp6,C1,19,F,2,12,46,7,3,11,1,2046.42641960959,813,587,853,632,0,759,260,6,23,614,810,57,79,57,78,21,Low
P101_Exp6,C1,19,F,2,12,47,8,4,12,1,2862.51830770959,617,0,2106,1170,0,1194,110,11,11,859,810,0,0,0,0,21,Low
P101_Exp6,C1,19,F,2,12,48,6,2,10,1,1724.79422315553,313,233,494,57,0,576,213,7,20,517,812,133,259,133,249,21,Low
P101_Exp6,C1,19,F,3,13,49,11,3,15,2,5769.90423845359,1516,826,3498,387,0,907,293,24,14,1731,813,0,1,0,0,21,Low
P101_Exp6,C1,19,F,3,13,50,10,2,14,1,1706.45059242725,163,407,691,717,0,280,236,10,15,512,810,67,140,67,110,21,Low
P101_Exp6,C1,19,F,3,13,51,12,4,16,1,1471.79133618204,460,1353,892,537,0,471,116,7,12,442,812,0,0,0,0,21,Low
P101_Exp6,C1,19,F,3,13,52,9,1,13,1,2607.63454129005,294,469,1484,668,0,454,280,5,10,782,812,223,200,218,200,21,Low
P101_Exp6,C1,19,F,3,14,53,10,2,14,2,2994.87746361694,586,683,1720,189,0,447,130,12,17,898,805,0,0,0,0,21,Low
P101_Exp6,C1,19,F,3,14,54,11,3,15,1,1508.4155092411,440,644,736,759,0,417,156,5,17,453,811,26,91,26,91,21,Low
P101_Exp6,C1,19,F,3,14,55,9,1,13,1,2017.87937256927,443,493,1400,889,0,410,163,6,25,605,813,6,102,0,84,21,Low
P101_Exp6,C1,19,F,3,14,56,12,4,16,1,1361.50738405922,509,0,803,1061,0,387,276,2,19,409,810,0,173,0,173,21,Low
P101_Exp6,C1,19,F,3,15,57,9,1,13,1,2087.77558159056,283,0,1373,923,0,806,214,5,13,626,812,74,137,74,136,21,Low
P101_Exp6,C1,19,F,3,15,58,12,4,16,1,2507.78673827551,450,590,1289,663,0,540,137,7,21,753,811,144,66,143,64,21,Low
P101_Exp6,C1,19,F,3,15,59,11,3,15,2,5945.26945688438,843,157,4109,488,0,754,183,22,22,1783,806,0,92,0,91,21,Low
P101_Exp6,C1,19,F,3,15,60,10,2,14,1,1059.61310210182,253,660,469,497,0,323,194,6,20,318,811,70,142,70,142,21,Low
P101_Exp6,C1,19,F,3,16,61,12,4,16,1,2017.67018472526,424,0,1208,450,0,480,260,6,20,605,814,74,206,74,197,21,Low
P101_Exp6,C1,19,F,3,16,62,11,3,15,1,2522.40151267267,437,204,1105,352,0,623,214,9,19,757,812,106,233,103,233,21,Low
P101_Exp6,C1,19,F,3,16,63,9,1,13,1,2286.02528607109,390,381,893,821,0,730,73,5,23,686,813,159,82,159,77,21,Low
P101_Exp6,C1,19,F,3,16,64,10,2,14,1,3188.08371860518,906,143,1430,317,0,323,167,11,20,957,810,0,360,0,358,21,Low
P101_Exp6,C1,19,F,3,17,65,12,4,16,1,1913.71680614532,533,667,1057,860,0,0,NA,5,16,574,810,3,237,0,235,21,Low
P101_Exp6,C1,19,F,3,17,66,9,1,13,1,3014.12153783554,453,188,2450,1260,0,307,313,6,22,905,809,0,187,0,179,21,Low
P101_Exp6,C1,19,F,3,17,67,11,3,15,1,4406.48367610356,1374,0,1034,1510,0,567,183,19,24,1322,812,63,0,57,0,21,Low
P101_Exp6,C1,19,F,3,17,68,10,2,14,1,1416.44470015194,346,236,190,247,0,447,116,3,20,425,813,198,269,198,264,21,Low
P101_Exp6,C1,19,F,3,18,69,11,3,15,1,4242.16647367859,1081,667,2244,1276,0,250,167,27,25,1273,811,49,0,49,0,21,Low
P101_Exp6,C1,19,F,3,18,70,10,2,14,1,1857.77369799428,210,0,830,57,0,1240,1266,5,11,557,812,73,150,65,145,21,Low
P101_Exp6,C1,19,F,3,18,71,9,1,13,1,2736.25306839017,187,0,2202,580,0,650,220,10,31,821,813,0,93,0,77,21,Low
P101_Exp6,C1,19,F,3,18,72,12,4,16,1,1828.15746863992,344,280,1034,371,0,514,400,6,23,548,808,2,256,0,253,21,Low
P102_Exp6,C1,22,F,1,1,1,3,3,7,2,6228.37939490637,1707,393,3033,1332,0,317,207,27,16,1868,806,107,20,90,0,21,Low
P102_Exp6,C1,22,F,1,1,2,2,2,6,1,2995.82348772128,337,417,2186,639,0,514,193,10,16,898,811,26,42,26,31,21,Low
P102_Exp6,C1,22,F,1,1,3,4,4,8,1,2309.62547829404,670,771,1070,1100,0,34,283,10,11,693,811,7,73,0,46,21,Low
P102_Exp6,C1,22,F,1,1,4,1,1,5,2,3441.10079292295,570,1019,2323,403,0,343,217,10,15,1032,811,31,84,27,60,21,Low
P102_Exp6,C1,22,F,1,2,5,2,2,6,1,1318.06634363966,304,694,750,514,0,250,290,6,15,396,813,0,192,0,179,21,Low
P102_Exp6,C1,22,F,1,2,6,4,4,8,1,1721.85895245457,369,0,977,543,0,1798,236,7,10,516,812,0,24,0,0,21,Low
P102_Exp6,C1,22,F,1,2,7,1,1,5,1,1429.51305416682,230,647,0,230,0,746,206,5,18,429,810,16,114,0,102,21,Low
P102_Exp6,C1,22,F,1,2,8,3,3,7,1,1094.34884925577,353,447,466,337,0,1067,147,4,12,328,810,0,125,0,118,21,Low
P102_Exp6,C1,22,F,1,3,9,4,4,8,1,2949.8601188352,1203,652,1129,87,0,936,53,10,11,885,814,71,153,66,146,21,Low
P102_Exp6,C1,22,F,1,3,10,2,2,6,1,1114.05567234215,256,213,549,30,0,1193,223,6,6,334,809,0,285,0,270,21,Low
P102_Exp6,C1,22,F,1,3,11,3,3,7,1,1055.50873396896,260,0,543,223,0,197,286,3,4,317,812,12,649,0,649,21,Low
P102_Exp6,C1,22,F,1,3,12,1,1,5,1,1070.0124244886,197,226,63,381,0,50,2623,2,8,321,812,216,449,190,379,21,Low
P102_Exp6,C1,22,F,1,4,13,4,4,8,1,1069.75493930804,176,0,591,915,0,1249,247,5,10,321,813,0,33,0,0,21,Low
P102_Exp6,C1,22,F,1,4,14,1,1,5,1,1195.57191896274,607,307,483,624,0,643,231,4,13,359,809,0,170,0,159,21,Low
P102_Exp6,C1,22,F,1,4,15,3,3,7,1,997.672068322572,330,190,576,240,0,256,1903,3,7,300,809,0,448,0,437,21,Low
P102_Exp6,C1,22,F,1,4,16,2,2,6,1,791.842700400593,233,0,480,0,0,1213,16,3,8,237,811,0,222,0,221,21,Low
P102_Exp6,C1,22,F,1,5,17,1,1,5,1,1107.79301692855,347,450,628,418,0,468,290,5,20,332,811,0,57,0,30,21,Low
P102_Exp6,C1,22,F,1,5,18,3,3,7,1,952.253251920411,306,576,571,925,0,417,223,4,11,286,813,0,100,0,77,21,Low
P102_Exp6,C1,22,F,1,5,19,2,2,6,1,723.732285443475,287,1285,353,754,0,220,203,3,9,217,812,0,66,0,44,21,Low
P102_Exp6,C1,22,F,1,5,20,4,4,8,1,543.536729521293,263,0,198,1001,0,398,243,3,13,163,810,0,95,0,91,21,Low
P102_Exp6,C1,22,F,1,6,21,2,2,6,1,995.553928203663,193,73,544,364,0,363,53,4,9,299,810,0,435,0,408,21,Low
P102_Exp6,C1,22,F,1,6,22,1,1,5,1,1733.73375851043,417,0,832,190,0,230,263,6,12,520,813,31,358,0,327,21,Low
P102_Exp6,C1,22,F,1,6,23,3,3,7,1,961.761790285891,357,554,560,1010,0,176,243,3,13,289,810,0,70,0,65,21,Low
P102_Exp6,C1,22,F,1,6,24,4,4,8,1,340.214597146769,193,0,86,493,0,387,273,2,11,102,812,0,139,0,101,21,Low
P102_Exp6,C1,22,F,2,7,25,7,3,11,1,2158.39655253694,859,483,550,217,0,1668,267,5,10,648,811,83,19,79,0,21,Low
P102_Exp6,C1,22,F,2,7,26,6,2,10,1,1239.69214069439,457,807,610,0,0,1055,427,4,17,372,811,13,33,0,33,21,Low
P102_Exp6,C1,22,F,2,7,27,5,1,9,1,1399.87267614379,430,656,859,367,0,815,263,5,21,420,814,0,52,0,31,21,Low
P102_Exp6,C1,22,F,2,7,28,8,4,12,1,986.231032729847,408,624,444,447,0,428,343,5,19,296,813,0,95,0,71,21,Low
P102_Exp6,C1,22,F,2,8,29,5,1,9,1,1117.85123936897,379,740,500,636,0,524,214,5,18,335,813,0,38,0,0,21,Low
P102_Exp6,C1,22,F,2,8,30,6,2,10,1,906.716710756882,413,553,430,794,0,603,237,4,12,272,812,0,94,0,68,21,Low
P102_Exp6,C1,22,F,2,8,31,8,4,12,1,1296.21602433144,374,590,770,600,0,443,544,4,14,389,809,14,35,0,0,21,Low
P102_Exp6,C1,22,F,2,8,32,7,3,11,1,366.287311202541,186,0,130,727,0,942,103,3,17,110,814,0,65,0,54,21,Low
P102_Exp6,C1,22,F,2,9,33,8,4,12,2,2091.46610191056,434,456,1273,959,0,152,210,8,14,627,806,0,137,0,89,21,Low
P102_Exp6,C1,22,F,2,9,34,5,1,9,1,930.067567975129,387,1116,467,303,0,352,107,4,14,279,810,0,115,0,109,21,Low
P102_Exp6,C1,22,F,2,9,35,7,3,11,1,989.890159778952,433,550,506,1173,0,423,223,3,9,297,812,0,73,0,72,21,Low
P102_Exp6,C1,22,F,2,9,36,6,2,10,1,352.016051620012,247,0,40,217,0,417,256,3,4,105,813,0,547,0,547,21,Low
P102_Exp6,C1,22,F,2,10,37,7,3,11,1,971.749076012202,313,316,404,449,0,313,234,4,10,292,812,0,311,0,311,21,Low
P102_Exp6,C1,22,F,2,10,38,8,4,12,1,1181.62696826766,277,513,413,771,0,479,467,4,12,354,814,0,84,0,84,21,Low
P102_Exp6,C1,22,F,2,10,39,5,1,9,1,1055.73512774026,357,503,620,1070,0,280,240,4,11,317,811,0,111,0,111,21,Low
P102_Exp6,C1,22,F,2,10,40,6,2,10,1,472.170772141908,180,487,253,656,0,406,213,2,13,142,812,0,40,0,40,21,Low
P102_Exp6,C1,22,F,2,11,41,5,1,9,1,933.585727170794,373,1060,477,542,0,57,256,4,8,280,813,0,140,0,114,21,Low
P102_Exp6,C1,22,F,2,11,42,8,4,12,1,1055.78614180376,244,759,660,484,0,653,440,6,13,317,812,0,96,0,92,21,Low
P102_Exp6,C1,22,F,2,11,43,7,3,11,1,872.247202678409,483,516,233,960,0,84,290,4,11,262,812,29,140,29,140,21,Low
P102_Exp6,C1,22,F,2,11,44,6,2,10,1,614.029108804971,120,150,230,1107,0,727,1627,6,16,184,809,0,90,0,85,21,Low
P102_Exp6,C1,22,F,2,12,45,8,4,12,1,1416.14978453435,827,63,497,1043,0,457,204,4,13,425,814,0,122,0,121,21,Low
P102_Exp6,C1,22,F,2,12,46,6,2,10,1,1207.90071999181,416,673,686,957,0,280,186,4,15,362,811,0,135,0,132,21,Low
P102_Exp6,C1,22,F,2,12,47,7,3,11,1,906.338482232968,390,333,480,727,0,689,200,2,19,272,812,0,75,0,72,21,Low
P102_Exp6,C1,22,F,2,12,48,5,1,9,1,781.857527683314,563,679,154,281,0,254,390,3,15,235,814,0,102,0,100,21,Low
P102_Exp6,C1,22,F,3,13,49,10,2,14,1,1781.46692296468,1210,196,480,136,0,1437,184,4,23,534,814,0,48,0,0,21,Low
P102_Exp6,C1,22,F,3,13,50,11,3,15,1,1015.55204460783,330,806,460,300,0,804,306,3,12,305,814,0,69,0,45,21,Low
P102_Exp6,C1,22,F,3,13,51,9,1,13,1,1230.40033663347,373,196,733,593,0,686,170,6,18,369,809,0,32,0,32,21,Low
P102_Exp6,C1,22,F,3,13,52,12,4,16,1,1792.16448141233,602,0,706,1655,0,207,243,6,13,538,811,39,89,39,77,21,Low
P102_Exp6,C1,22,F,3,14,53,9,1,13,1,1386.36059033888,936,0,373,1853,0,0,NA,3,13,416,812,0,26,0,26,21,Low
P102_Exp6,C1,22,F,3,14,54,11,3,15,1,1147.51757721206,316,180,456,1772,0,410,360,4,8,344,810,36,44,36,37,21,Low
P102_Exp6,C1,22,F,3,14,55,12,4,16,1,1127.60941459965,681,536,146,500,0,136,510,4,8,339,810,0,267,0,226,21,Low
P102_Exp6,C1,22,F,3,14,56,10,2,14,1,828.376919667789,322,587,443,493,0,935,177,3,7,248,810,0,114,0,114,21,Low
P102_Exp6,C1,22,F,3,15,57,11,3,15,1,1355.72830574165,730,304,287,602,0,817,244,5,11,407,812,0,103,0,103,21,Low
P102_Exp6,C1,22,F,3,15,58,10,2,14,1,1422.15163432229,507,0,497,373,0,709,224,5,3,426,812,38,449,38,445,21,Low
P102_Exp6,C1,22,F,3,15,59,9,1,13,1,2277.96325297095,689,953,919,94,0,810,140,8,8,683,811,70,92,69,67,21,Low
P102_Exp6,C1,22,F,3,15,60,12,4,16,1,805.560653607245,317,130,413,277,0,1544,107,4,11,241,812,0,30,0,28,21,Low
P102_Exp6,C1,22,F,3,16,61,10,2,14,1,1589.68634501434,953,210,300,612,0,730,87,3,11,477,812,69,136,69,107,21,Low
P102_Exp6,C1,22,F,3,16,62,9,1,13,1,941.744958663548,386,503,480,1402,0,150,750,4,11,283,811,0,24,0,0,21,Low
P102_Exp6,C1,22,F,3,16,63,12,4,16,1,1329.90462483212,643,0,243,626,40,383,4,5,5,399,809,0,432,0,432,21,Low
P102_Exp6,C1,22,F,3,16,64,11,3,15,1,775.626869257394,370,487,0,0,0,334,303,4,8,233,811,0,416,0,403,21,Low
P102_Exp6,C1,22,F,3,17,65,12,4,16,1,890.371080520708,416,193,243,247,0,0,NA,4,8,267,811,0,353,0,351,21,Low
P102_Exp6,C1,22,F,3,17,66,9,1,13,1,881.50640603817,263,280,440,860,0,454,346,3,8,264,814,33,237,31,216,21,Low
P102_Exp6,C1,22,F,3,17,67,11,3,15,1,1615.68389633976,806,466,204,279,0,734,1536,5,10,485,814,43,96,0,91,21,Low
P102_Exp6,C1,22,F,3,17,68,10,2,14,1,1006.40483069947,507,863,240,393,0,370,297,6,9,302,811,0,133,0,80,21,Low
P102_Exp6,C1,22,F,3,18,69,9,1,13,1,914.027720256854,373,150,454,1159,0,170,753,4,11,274,810,0,190,0,180,21,Low
P102_Exp6,C1,22,F,3,18,70,10,2,14,1,2391.61262395828,833,0,1258,344,0,0,NA,7,8,717,812,36,467,31,435,21,Low
P102_Exp6,C1,22,F,3,18,71,11,3,15,1,1719.60467421559,914,0,190,210,0,0,NA,6,4,516,813,61,667,31,639,21,Low
P102_Exp6,C1,22,F,3,18,72,12,4,16,1,564.258702273946,236,286,264,84,0,356,227,3,12,170,809,0,133,0,125,21,Low
P103_Exp6,C1,18,M,1,1,1,1,1,5,3,4339.57918529632,380,197,3587,203,0,1253,240,11,8,1302,812,12,0,0,0,35,High
P103_Exp6,C1,18,M,1,1,2,3,3,7,2,5451.69843625263,1229,0,2012,685,0,1863,277,18,4,1636,808,52,0,51,0,35,High
P103_Exp6,C1,18,M,1,1,3,2,2,6,2,3747.24101458196,417,204,2617,110,0,1446,244,9,13,1124,810,7,0,0,0,35,High
P103_Exp6,C1,18,M,1,1,4,4,4,8,3,3855.16684919276,499,0,2315,1228,0,1187,220,12,7,1156,807,0,8,0,0,35,High
P103_Exp6,C1,18,M,1,2,5,2,2,6,3,6300.30348839864,1193,227,3177,0,0,2090,243,24,7,1891,809,33,0,0,0,35,High
P103_Exp6,C1,18,M,1,2,6,4,4,8,2,3792.80049697991,875,256,2250,167,0,1937,206,13,7,1138,806,0,0,0,0,35,High
P103_Exp6,C1,18,M,1,2,7,3,3,7,2,3995.22339329997,1028,0,1133,186,0,1960,227,15,8,1199,810,0,0,0,0,35,High
P103_Exp6,C1,18,M,1,2,8,1,1,5,1,2155.94546264765,777,983,846,247,0,1050,203,7,10,647,812,0,0,0,0,35,High
P103_Exp6,C1,18,M,1,3,9,4,4,8,1,1619.46014443311,503,1256,1019,640,0,397,196,5,15,486,813,0,0,0,0,35,High
P103_Exp6,C1,18,M,1,3,10,3,3,7,1,1706.24261201738,383,500,1033,1004,0,600,197,5,12,512,811,0,0,0,0,35,High
P103_Exp6,C1,18,M,1,3,11,2,2,6,1,967.599429128313,303,0,616,873,0,640,204,3,11,290,814,0,0,0,0,35,High
P103_Exp6,C1,18,M,1,3,12,1,1,5,1,682.420252040174,170,0,450,1117,0,964,310,2,11,205,814,0,8,0,0,35,High
P103_Exp6,C1,18,M,1,4,13,3,3,7,2,5987.1459654205,2736,1400,2496,627,0,287,223,16,11,1797,807,4,0,0,0,35,High
P103_Exp6,C1,18,M,1,4,14,2,2,6,1,2091.59831587385,813,1590,910,403,0,273,237,8,16,628,811,6,0,3,0,35,High
P103_Exp6,C1,18,M,1,4,15,4,4,8,1,1169.53391861534,310,0,583,1906,0,0,NA,5,11,350,813,0,0,0,0,35,High
P103_Exp6,C1,18,M,1,4,16,1,1,5,1,668.31833499964,152,460,443,926,0,113,2596,4,17,200,814,0,48,0,44,35,High
P103_Exp6,C1,18,M,1,5,17,4,4,8,1,5401.89905131774,1909,463,2732,1358,0,203,227,25,16,1620,814,0,0,0,0,35,High
P103_Exp6,C1,18,M,1,5,18,1,1,5,1,1339.64800900139,280,0,745,2026,0,0,NA,8,12,402,812,0,0,0,0,35,High
P103_Exp6,C1,18,M,1,5,19,3,3,7,1,1693.83985568857,236,333,1064,2138,0,0,NA,7,11,508,810,0,12,0,0,35,High
P103_Exp6,C1,18,M,1,5,20,2,2,6,1,899.784231642116,56,0,590,956,0,0,NA,4,6,270,814,0,0,0,0,35,High
P103_Exp6,C1,18,M,1,6,21,4,4,8,1,3020.52033137079,697,803,1549,1609,0,0,NA,13,14,906,813,0,0,0,0,35,High
P103_Exp6,C1,18,M,1,6,22,1,1,5,1,1067.97608799025,130,882,717,323,0,594,596,5,35,321,813,0,18,0,0,35,High
P103_Exp6,C1,18,M,1,6,23,2,2,6,1,2075.85972279776,580,0,1350,490,0,417,530,10,12,622,811,0,328,0,328,35,High
P103_Exp6,C1,18,M,1,6,24,3,3,7,1,1201.48532425083,278,438,380,447,0,390,400,6,11,361,813,0,355,0,355,35,High
P103_Exp6,C1,18,M,2,7,25,5,1,9,1,1616.41952516584,533,434,943,733,0,1206,214,6,12,485,814,0,0,0,0,35,High
P103_Exp6,C1,18,M,2,7,26,7,3,11,2,3648.28882532311,582,1489,2458,643,0,347,246,16,12,1094,809,0,0,0,0,35,High
P103_Exp6,C1,18,M,2,7,27,6,2,10,2,2288.02660700239,537,127,1418,2243,0,0,NA,11,15,687,807,0,0,0,0,35,High
P103_Exp6,C1,18,M,2,7,28,8,4,12,1,1407.71223963384,407,889,875,620,0,477,363,5,10,422,811,0,0,0,0,35,High
P103_Exp6,C1,18,M,2,8,29,7,3,11,1,2635.74147884356,636,716,1623,1123,0,274,200,7,20,791,813,48,0,45,0,35,High
P103_Exp6,C1,18,M,2,8,30,6,2,10,1,1578.64587546646,713,278,617,296,0,1120,473,4,24,473,810,0,0,0,0,35,High
P103_Exp6,C1,18,M,2,8,31,8,4,12,1,1460.37988270837,411,992,894,237,0,891,240,10,25,438,811,0,0,0,0,35,High
P103_Exp6,C1,18,M,2,8,32,5,1,9,1,1099.80041125164,340,862,567,1184,0,300,240,6,25,330,813,0,0,0,0,35,High
P103_Exp6,C1,18,M,2,9,33,6,2,10,1,1450.25464771243,710,580,494,990,0,406,413,5,19,435,814,25,26,0,26,35,High
P103_Exp6,C1,18,M,2,9,34,8,4,12,1,1337.73966044464,537,258,694,591,0,407,456,7,23,401,812,0,112,0,87,35,High
P103_Exp6,C1,18,M,2,9,35,7,3,11,1,1245.86816275769,533,693,420,839,0,460,390,8,33,374,810,0,0,0,0,35,High
P103_Exp6,C1,18,M,2,9,36,5,1,9,1,635.949157393043,127,816,421,540,0,300,1284,3,28,191,813,0,0,0,0,35,High
P103_Exp6,C1,18,M,2,10,37,8,4,12,1,1915.49143144948,440,496,1307,853,0,384,389,7,27,575,814,0,7,0,0,35,High
P103_Exp6,C1,18,M,2,10,38,6,2,10,1,950.151714008825,333,0,499,943,0,270,1537,4,7,285,813,0,285,0,285,35,High
P103_Exp6,C1,18,M,2,10,39,5,1,9,1,1585.67404368296,274,1410,1022,300,0,0,NA,9,21,476,813,0,0,0,0,35,High
P103_Exp6,C1,18,M,2,10,40,7,3,11,1,1164.6413983035,26,0,810,580,0,1716,640,5,6,350,814,1,129,0,87,35,High
P103_Exp6,C1,18,M,2,11,41,8,4,12,1,1250.02867654257,536,0,580,518,0,0,NA,4,12,375,813,0,334,0,334,35,High
P103_Exp6,C1,18,M,2,11,42,5,1,9,1,1769.47831630605,494,851,1087,760,0,374,1450,7,21,531,813,0,0,0,0,35,High
P103_Exp6,C1,18,M,2,11,43,7,3,11,1,1132.18649292685,547,896,463,662,0,337,713,6,30,339,814,0,0,0,0,35,High
P103_Exp6,C1,18,M,2,11,44,6,2,10,1,808.284623457439,246,832,463,549,0,810,610,4,18,243,811,0,0,0,0,35,High
P103_Exp6,C1,18,M,2,12,45,8,4,12,1,2562.00834819538,1264,495,700,660,0,804,336,12,20,768,810,13,0,0,0,35,High
P103_Exp6,C1,18,M,2,12,46,6,2,10,1,1198.25815651348,380,170,736,472,0,413,500,6,9,360,814,0,430,0,430,35,High
P103_Exp6,C1,18,M,2,12,47,7,3,11,1,1333.68298593632,336,524,686,1103,0,180,2527,4,26,401,813,0,0,0,0,35,High
P103_Exp6,C1,18,M,2,12,48,5,1,9,1,1105.79743130802,207,574,814,541,0,1109,1457,6,21,332,811,0,13,0,1,35,High
P103_Exp6,C1,18,M,3,13,49,12,4,16,3,3564.14973140636,424,408,2843,1430,0,207,367,7,17,1069,810,0,0,0,0,35,High
P103_Exp6,C1,18,M,3,13,50,11,3,15,1,1533.62339909654,443,1257,764,973,0,0,NA,6,9,460,813,0,0,0,0,35,High
P103_Exp6,C1,18,M,3,13,51,9,1,13,2,5841.90772068905,564,1007,3518,1185,0,0,NA,15,20,1753,806,76,0,76,0,35,High
P103_Exp6,C1,18,M,3,13,52,10,2,14,1,1440.00082105413,371,741,842,1564,0,0,NA,9,21,432,811,0,0,0,0,35,High
P103_Exp6,C1,18,M,3,14,53,9,1,13,1,2878.20196256507,734,759,1749,560,0,776,357,9,15,864,810,0,0,0,0,35,High
P103_Exp6,C1,18,M,3,14,54,10,2,14,1,1275.69025951379,360,838,513,496,0,443,560,3,20,383,811,49,0,49,0,35,High
P103_Exp6,C1,18,M,3,14,55,12,4,16,1,1377.49984001493,540,588,704,387,0,1020,580,7,18,414,810,0,0,0,0,35,High
P103_Exp6,C1,18,M,3,14,56,11,3,15,1,1412.27875291588,426,784,636,739,0,333,833,9,19,423,810,0,97,0,92,35,High
P103_Exp6,C1,18,M,3,15,57,10,2,14,1,1287.77727199486,366,489,420,556,0,670,1690,8,15,387,812,3,23,1,0,35,High
P103_Exp6,C1,18,M,3,15,58,12,4,16,1,1181.94844742175,690,1057,400,1326,0,54,2656,5,20,354,814,0,0,0,0,35,High
P103_Exp6,C1,18,M,3,15,59,9,1,13,1,1088.07442136458,390,915,574,420,0,0,NA,5,17,327,812,0,217,0,164,35,High
P103_Exp6,C1,18,M,3,15,60,11,3,15,1,1710.2482724622,584,47,973,1402,0,0,NA,8,24,514,809,0,313,0,137,35,High
P103_Exp6,C1,18,M,3,16,61,12,4,16,1,1450.11277428057,1256,2256,0,0,0,0,NA,11,28,435,814,0,0,0,0,35,High
P103_Exp6,C1,18,M,3,16,62,11,3,15,1,889.500521006994,828,2310,0,0,0,0,NA,9,27,267,812,0,0,0,0,35,High
P103_Exp6,C1,18,M,3,16,63,10,2,14,1,757.694973333855,247,2029,439,174,0,0,NA,4,35,227,811,0,3,0,0,35,High
P103_Exp6,C1,18,M,3,16,64,9,1,13,1,3466.30294746501,346,579,2159,1036,0,0,NA,15,15,1040,814,183,242,86,241,35,High
P103_Exp6,C1,18,M,3,17,65,12,4,16,1,1273.48065631304,538,205,491,446,0,0,NA,6,9,382,812,26,465,26,465,35,High
P103_Exp6,C1,18,M,3,17,66,9,1,13,1,1400.22343555756,456,260,780,547,0,1226,623,5,13,420,814,0,0,0,0,35,High
P103_Exp6,C1,18,M,3,17,67,11,3,15,1,2457.70632321,942,0,1420,510,0,0,NA,7,9,737,811,0,515,0,515,35,High
P103_Exp6,C1,18,M,3,17,68,10,2,14,1,1175.9628979853,260,100,467,0,0,0,NA,7,7,353,811,57,507,29,506,35,High
P103_Exp6,C1,18,M,3,18,69,11,3,15,1,1391.99175806061,737,889,614,460,0,223,306,2,25,417,811,0,28,0,0,35,High
P103_Exp6,C1,18,M,3,18,70,12,4,16,1,1362.09540414711,456,204,404,433,0,0,NA,5,8,409,810,57,508,57,508,35,High
P103_Exp6,C1,18,M,3,18,71,10,2,14,1,1203.53735738536,390,70,607,386,0,0,NA,6,5,362,812,0,550,0,543,35,High
P103_Exp6,C1,18,M,3,18,72,9,1,13,1,1781.99245837095,556,314,676,383,0,0,NA,5,4,534,814,46,543,46,543,35,High
P104_Exp6,C1,18,F,1,1,1,1,1,5,1,7862.2282218239,1186,0,4178,1103,0,866,217,27,7,2359,810,0,0,0,0,20,Low
P104_Exp6,C1,18,F,1,1,2,2,2,6,3,11682.1280531476,725,0,9689,1983,0,390,273,34,3,3505,809,44,0,44,0,20,Low
P104_Exp6,C1,18,F,1,1,3,4,4,8,4,16022.2016824373,1104,0,12320,970,0,760,250,34,13,4807,808,0,26,0,26,20,Low
P104_Exp6,C1,18,F,1,1,4,3,3,7,3,15627.4258847152,1277,377,12499,823,0,1293,249,41,9,4688,811,40,0,38,0,20,Low
P104_Exp6,C1,18,F,1,2,5,4,4,8,1,3362.08272609656,673,0,2185,2063,0,206,307,9,9,1008,810,0,0,0,0,20,Low
P104_Exp6,C1,18,F,1,2,6,1,1,5,1,2692.24906212548,480,0,1980,353,0,574,286,11,6,808,811,0,0,0,0,20,Low
P104_Exp6,C1,18,F,1,2,7,2,2,6,1,3930.29275431036,331,0,2865,1920,0,0,NA,19,6,1179,810,0,0,0,0,20,Low
P104_Exp6,C1,18,F,1,2,8,3,3,7,1,3357.7495493264,285,204,2641,1617,0,393,257,16,10,1008,811,0,0,0,0,20,Low
P104_Exp6,C1,18,F,1,3,9,1,1,5,1,2172.36565189887,543,17,1297,839,0,300,273,7,11,652,812,0,0,0,0,20,Low
P104_Exp6,C1,18,F,1,3,10,4,4,8,1,1749.99728327384,531,270,1110,1071,0,290,336,7,16,525,813,0,120,0,120,20,Low
P104_Exp6,C1,18,F,1,3,11,3,3,7,3,6929.66187033744,244,227,5291,570,0,1059,254,17,11,2079,810,0,0,0,0,20,Low
P104_Exp6,C1,18,F,1,3,12,2,2,6,2,6380.81454667554,901,190,4642,600,0,1007,300,21,15,1914,810,0,0,0,0,20,Low
P104_Exp6,C1,18,F,1,4,13,4,4,8,1,4108.52170301223,1164,0,2577,1770,0,0,NA,16,12,1233,811,0,50,0,50,20,Low
P104_Exp6,C1,18,F,1,4,14,3,3,7,2,4455.65730865565,432,234,3146,1514,0,444,293,13,14,1337,807,0,0,0,0,20,Low
P104_Exp6,C1,18,F,1,4,15,2,2,6,2,6086.51713408472,736,521,4185,519,0,643,304,30,17,1826,813,0,107,0,107,20,Low
P104_Exp6,C1,18,F,1,4,16,1,1,5,1,2059.8938303774,924,0,636,653,0,663,396,15,11,618,811,0,27,0,27,20,Low
P104_Exp6,C1,18,F,1,5,17,2,2,6,3,5958.96869487478,483,744,4607,1399,0,113,2563,17,17,1788,811,59,31,59,31,20,Low
P104_Exp6,C1,18,F,1,5,18,4,4,8,1,4569.81953699869,1515,519,2273,410,0,780,1926,27,19,1371,813,0,0,0,0,20,Low
P104_Exp6,C1,18,F,1,5,19,3,3,7,2,8476.42606945374,867,378,5043,807,0,0,NA,33,22,2543,811,277,0,273,0,20,Low
P104_Exp6,C1,18,F,1,5,20,1,1,5,1,2874.13019513406,396,0,2041,2316,0,0,NA,14,6,862,812,0,0,0,0,20,Low
P104_Exp6,C1,18,F,1,6,21,3,3,7,1,5198.23249855472,2244,462,1837,657,0,1020,260,31,13,1559,810,58,0,51,0,20,Low
P104_Exp6,C1,18,F,1,6,22,4,4,8,1,2255.89529378703,971,514,1117,1345,0,0,NA,13,33,677,812,0,0,0,0,20,Low
P104_Exp6,C1,18,F,1,6,23,2,2,6,1,4430.28339670127,1390,1181,2539,707,0,427,273,25,27,1329,810,0,0,0,0,20,Low
P104_Exp6,C1,18,F,1,6,24,1,1,5,1,1253.58758661605,175,0,643,1090,0,0,NA,9,8,376,812,0,337,0,336,20,Low
P104_Exp6,C1,18,F,2,7,25,5,1,9,1,7628.54034578413,4500,148,1851,250,0,1717,290,56,10,2289,810,57,0,47,0,20,Low
P104_Exp6,C1,18,F,2,7,26,7,3,11,1,4859.78528211126,1027,394,3193,1240,0,360,263,34,23,1458,811,17,0,0,0,20,Low
P104_Exp6,C1,18,F,2,7,27,6,2,10,1,2441.73620477159,493,569,1180,360,0,893,246,14,24,732,811,0,0,0,0,20,Low
P104_Exp6,C1,18,F,2,7,28,8,4,12,1,1577.65396889226,285,174,963,757,0,671,243,15,12,473,811,0,182,0,149,20,Low
P104_Exp6,C1,18,F,2,8,29,5,1,9,1,2654.13219947368,831,395,1486,1146,0,453,493,17,23,796,812,0,55,0,55,20,Low
P104_Exp6,C1,18,F,2,8,30,6,2,10,2,4748.51153642157,420,0,3837,2226,0,293,283,21,7,1425,814,0,0,0,0,20,Low
P104_Exp6,C1,18,F,2,8,31,8,4,12,1,2406.49816530276,266,260,1369,854,0,0,NA,18,15,722,810,0,240,0,223,20,Low
P104_Exp6,C1,18,F,2,8,32,7,3,11,1,1631.7587596277,237,284,680,660,0,747,273,16,13,490,814,10,61,0,60,20,Low
P104_Exp6,C1,18,F,2,9,33,5,1,9,1,1364.31768539842,344,450,746,1055,0,0,NA,5,18,409,810,1,0,0,0,20,Low
P104_Exp6,C1,18,F,2,9,34,7,3,11,3,6903.01411610562,210,0,4474,996,0,603,726,12,10,2071,813,0,0,0,0,20,Low
P104_Exp6,C1,18,F,2,9,35,6,2,10,2,5890.78824877652,333,0,3494,1213,0,786,307,21,8,1768,806,62,59,61,55,20,Low
P104_Exp6,C1,18,F,2,9,36,8,4,12,1,1225.867329631,53,26,853,591,0,817,257,7,16,368,810,0,45,0,45,20,Low
P104_Exp6,C1,18,F,2,10,37,5,1,9,1,1078.39654045893,0,226,1003,560,0,829,260,3,15,324,810,0,94,0,86,20,Low
P104_Exp6,C1,18,F,2,10,38,8,4,12,2,6893.46180827852,606,0,3603,1089,0,790,247,24,13,2068,811,49,52,49,52,20,Low
P104_Exp6,C1,18,F,2,10,39,6,2,10,1,3929.82245898384,347,492,895,1105,0,580,310,25,20,1179,810,303,0,303,0,20,Low
P104_Exp6,C1,18,F,2,10,40,7,3,11,1,1062.12878967926,0,82,619,146,0,544,220,8,13,319,810,3,0,0,0,20,Low
P104_Exp6,C1,18,F,2,11,41,8,4,12,1,2127.91580083649,420,479,1284,1263,0,306,240,13,19,638,810,0,0,0,0,20,Low
P104_Exp6,C1,18,F,2,11,42,7,3,11,1,5013.68293763517,996,41,3349,600,0,243,227,30,17,1504,810,0,101,0,97,20,Low
P104_Exp6,C1,18,F,2,11,43,6,2,10,1,925.558105922391,47,0,403,930,0,274,250,8,11,278,811,0,205,0,198,20,Low
P104_Exp6,C1,18,F,2,11,44,5,1,9,1,314.335978015151,0,0,310,483,0,753,327,1,6,95,809,0,379,0,371,20,Low
P104_Exp6,C1,18,F,2,12,45,8,4,12,1,4113.61616656723,180,367,3496,1147,0,190,256,13,18,1234,810,0,97,0,92,20,Low
P104_Exp6,C1,18,F,2,12,46,5,1,9,1,1709.62644424071,50,39,1224,448,0,820,253,12,23,513,811,0,127,0,123,20,Low
P104_Exp6,C1,18,F,2,12,47,6,2,10,1,4900.18479768696,265,0,2182,1677,0,293,267,28,4,1470,814,196,0,196,0,20,Low
P104_Exp6,C1,18,F,2,12,48,7,3,11,1,351.970471005188,0,0,283,253,0,606,297,2,5,106,813,0,358,0,358,20,Low
P104_Exp6,C1,18,F,3,13,49,12,4,16,1,1739.63599503986,443,169,1063,1287,0,369,284,10,15,522,812,0,0,0,0,20,Low
P104_Exp6,C1,18,F,3,13,50,10,2,14,1,1479.72628691423,189,546,776,933,0,493,250,11,26,444,809,0,0,0,0,20,Low
P104_Exp6,C1,18,F,3,13,51,9,1,13,1,1045.47435833956,80,628,701,540,0,323,350,12,41,314,810,0,0,0,0,20,Low
P104_Exp6,C1,18,F,3,13,52,11,3,15,1,877.563833986642,0,173,586,257,0,1513,300,6,14,264,810,0,81,0,81,20,Low
P104_Exp6,C1,18,F,3,14,53,9,1,13,1,1107.74381401643,181,0,576,545,0,1069,184,11,23,332,812,0,111,0,106,20,Low
P104_Exp6,C1,18,F,3,14,54,12,4,16,1,1400.25452697228,217,455,840,67,0,1047,193,8,23,420,814,0,138,0,138,20,Low
P104_Exp6,C1,18,F,3,14,55,11,3,15,2,2994.70872479287,10,0,1733,377,0,1733,217,9,8,898,811,0,119,0,117,20,Low
P104_Exp6,C1,18,F,3,14,56,10,2,14,1,1555.60925280588,170,916,206,0,0,613,170,7,30,467,812,135,0,135,0,20,Low
P104_Exp6,C1,18,F,3,15,57,12,4,16,1,1623.84403340548,0,280,1271,1322,0,0,NA,6,19,487,812,22,58,0,58,20,Low
P104_Exp6,C1,18,F,3,15,58,9,1,13,1,1513.53744190783,244,381,957,282,0,247,270,15,29,454,810,0,325,0,301,20,Low
P104_Exp6,C1,18,F,3,15,59,10,2,14,1,1013.98117369536,94,243,133,979,0,0,NA,8,20,304,809,1,155,0,155,20,Low
P104_Exp6,C1,18,F,3,15,60,11,3,15,1,551.444814860588,0,0,543,399,0,594,260,1,8,165,814,0,357,0,313,20,Low
P104_Exp6,C1,18,F,3,16,61,10,2,14,2,5048.35831311721,349,225,1936,442,849,990,773,26,13,1515,809,132,56,79,56,20,Low
P104_Exp6,C1,18,F,3,16,62,11,3,15,1,4176.0244770885,505,230,3211,739,0,854,227,20,12,1253,811,0,39,0,39,20,Low
P104_Exp6,C1,18,F,3,16,63,9,1,13,1,1850.35341576804,0,0,1177,403,167,1566,117,9,8,555,814,42,37,40,36,20,Low
P104_Exp6,C1,18,F,3,16,64,12,4,16,1,1401.72699205141,154,0,777,0,0,583,3,9,9,421,813,0,0,0,0,20,Low
P104_Exp6,C1,18,F,3,17,65,11,3,15,2,4592.47672370111,217,87,3902,839,0,660,213,11,21,1378,811,0,58,0,58,20,Low
P104_Exp6,C1,18,F,3,17,66,9,1,13,1,1130.04148741311,0,423,673,483,0,460,33,7,33,339,810,0,72,0,72,20,Low
P104_Exp6,C1,18,F,3,17,67,12,4,16,1,1255.85031689116,393,1204,668,13,0,467,170,10,32,377,811,0,0,0,0,20,Low
P104_Exp6,C1,18,F,3,17,68,10,2,14,1,2158.32833254899,0,0,0,34,110,1644,3,5,12,648,811,95,73,95,71,20,Low
P104_Exp6,C1,18,F,3,18,69,11,3,15,1,1719.50385352466,219,219,1157,616,0,783,257,10,31,516,812,0,89,0,89,20,Low
P104_Exp6,C1,18,F,3,18,70,12,4,16,1,1684.24287282323,147,764,1053,143,94,557,166,10,30,505,813,0,138,0,137,20,Low
P104_Exp6,C1,18,F,3,18,71,10,2,14,1,6848.56279197265,2265,168,2555,241,0,806,270,71,21,2054,810,124,187,122,186,20,Low
P104_Exp6,C1,18,F,3,18,72,9,1,13,1,855.762113878882,167,167,267,957,0,490,260,8,9,257,812,0,65,0,65,20,Low
P105_Exp6,C1,19,M,1,1,1,4,4,8,2,2941.5979536418,357,207,1680,200,0,1370,250,9,9,883,811,23,7,0,0,18,Low
P105_Exp6,C1,19,M,1,1,2,1,1,5,2,2591.1796383254,140,830,1410,184,0,607,223,11,16,777,806,35,0,35,0,18,Low
P105_Exp6,C1,19,M,1,1,3,3,3,7,2,2177.76770912445,130,170,1249,384,0,1687,193,9,11,654,805,34,26,0,26,18,Low
P105_Exp6,C1,19,M,1,1,4,2,2,6,1,1716.18341155488,143,515,754,170,0,1100,220,7,14,515,813,3,40,0,40,18,Low
P105_Exp6,C1,19,M,1,2,5,4,4,8,3,4710.29868281084,397,642,3601,227,57,1033,270,14,23,1414,805,0,0,0,0,18,Low
P105_Exp6,C1,19,M,1,2,6,3,3,7,1,1459.90445579162,363,1774,792,182,0,510,234,5,15,438,811,0,0,0,0,18,Low
P105_Exp6,C1,19,M,1,2,7,2,2,6,1,764.25344993919,273,566,293,470,0,712,374,3,23,229,809,0,19,0,0,18,Low
P105_Exp6,C1,19,M,1,2,8,1,1,5,2,2501.88148316295,440,1267,1883,473,0,286,200,8,21,751,808,0,17,0,0,18,Low
P105_Exp6,C1,19,M,1,3,9,4,4,8,1,1744.00780967954,399,415,1054,747,0,440,1313,6,33,523,810,35,0,35,0,18,Low
P105_Exp6,C1,19,M,1,3,10,3,3,7,1,1020.05184719201,346,651,450,599,0,364,323,3,25,306,813,38,0,38,0,18,Low
P105_Exp6,C1,19,M,1,3,11,1,1,5,1,1811.90571635216,173,616,1014,286,0,137,197,9,13,543,810,0,5,0,0,18,Low
P105_Exp6,C1,19,M,1,3,12,2,2,6,1,822.210255215225,274,0,0,156,0,1182,283,3,12,247,812,0,138,0,104,18,Low
P105_Exp6,C1,19,M,1,4,13,1,1,5,1,1609.8344850236099,287,0,976,817,0,110,303,7,23,483,810,0,0,0,0,18,Low
P105_Exp6,C1,19,M,1,4,14,2,2,6,1,1130.27482392602,343,0,633,184,0,510,427,5,10,339,810,0,419,0,415,18,Low
P105_Exp6,C1,19,M,1,4,15,4,4,8,1,1080.03653693595,180,238,813,726,0,666,487,5,26,324,810,0,126,0,105,18,Low
P105_Exp6,C1,19,M,1,4,16,3,3,7,1,533.821720037224,140,0,290,385,0,1933,267,6,8,160,813,0,65,0,65,18,Low
P105_Exp6,C1,19,M,1,5,17,2,2,6,2,3465.26002682918,600,0,1815,193,0,1563,303,13,9,1040,814,121,168,121,168,18,Low
P105_Exp6,C1,19,M,1,5,18,4,4,8,1,1381.7469871517,340,199,566,827,0,810,400,5,23,414,814,94,94,94,85,18,Low
P105_Exp6,C1,19,M,1,5,19,3,3,7,1,3703.98954121151,203,234,2372,0,0,990,240,13,12,1112,812,38,2,38,0,18,Low
P105_Exp6,C1,19,M,1,5,20,1,1,5,1,3270.16594965244,553,690,1446,493,0,0,NA,14,16,981,813,31,0,31,0,18,Low
P105_Exp6,C1,19,M,1,6,21,3,3,7,2,4019.90786075396,363,447,3216,454,0,410,390,15,17,1207,807,19,119,0,119,18,Low
P105_Exp6,C1,19,M,1,6,22,4,4,8,1,1101.89923243456,270,659,577,607,0,689,560,6,23,331,813,8,31,0,30,18,Low
P105_Exp6,C1,19,M,1,6,23,1,1,5,1,1226.39286503431,153,0,506,538,93,0,NA,8,22,368,811,0,7,0,0,18,Low
P105_Exp6,C1,19,M,1,6,24,2,2,6,1,218.033803306696,0,237,0,133,0,989,413,1,18,65,813,0,206,0,84,18,Low
P105_Exp6,C1,19,M,2,7,25,7,3,11,3,3219.69885402495,339,334,2012,963,0,717,237,14,17,966,808,26,16,26,0,18,Low
P105_Exp6,C1,19,M,2,7,26,6,2,10,1,1083.83180210649,63,403,543,233,0,380,320,7,23,326,813,1,5,0,0,18,Low
P105_Exp6,C1,19,M,2,7,27,5,1,9,2,3889.07399514369,0,637,786,160,0,755,200,4,25,1167,812,910,29,883,0,18,Low
P105_Exp6,C1,19,M,2,7,28,8,4,12,2,1950.8034262131,204,137,1343,256,106,1516,213,11,11,586,808,15,74,0,70,18,Low
P105_Exp6,C1,19,M,2,8,29,6,2,10,1,1309.42927036006,77,347,343,284,0,1223,234,9,14,393,810,3,0,0,0,18,Low
P105_Exp6,C1,19,M,2,8,30,5,1,9,1,745.844617805062,204,0,320,941,0,417,1266,5,16,224,810,0,0,0,0,18,Low
P105_Exp6,C1,19,M,2,8,31,8,4,12,2,2190.07598378658,301,290,1769,926,0,623,250,7,18,657,811,0,0,0,0,18,Low
P105_Exp6,C1,19,M,2,8,32,7,3,11,1,432.017874844689,222,137,0,0,0,891,283,4,15,130,814,0,265,0,257,18,Low
P105_Exp6,C1,19,M,2,9,33,8,4,12,1,1110.0895553385,234,204,354,569,0,686,400,6,26,334,810,19,0,0,0,18,Low
P105_Exp6,C1,19,M,2,9,34,6,2,10,1,867.582283570641,167,0,496,833,0,826,1700,6,19,260,813,0,0,0,0,18,Low
P105_Exp6,C1,19,M,2,9,35,7,3,11,1,1074.38212612124,457,74,464,978,0,1297,280,5,11,323,811,0,0,0,0,18,Low
P105_Exp6,C1,19,M,2,9,36,5,1,9,1,383.195907283607,163,33,0,665,0,1004,330,3,13,115,813,0,116,0,95,18,Low
P105_Exp6,C1,19,M,2,10,37,6,2,10,1,1279.86375321029,210,647,713,833,0,173,533,5,27,384,810,49,36,41,36,18,Low
P105_Exp6,C1,19,M,2,10,38,8,4,12,1,1511.7447051025,200,0,841,1343,0,416,1657,5,24,454,810,0,25,0,0,18,Low
P105_Exp6,C1,19,M,2,10,39,7,3,11,1,644.068845440074,293,0,287,1644,0,573,417,4,15,193,810,0,0,0,0,18,Low
P105_Exp6,C1,19,M,2,10,40,5,1,9,1,348.268480070715,0,96,80,126,226,50,2660,2,9,105,814,0,414,0,329,18,Low
P105_Exp6,C1,19,M,2,11,41,6,2,10,1,1640.37440096206,177,0,841,983,0,493,1940,12,32,492,811,0,80,0,77,18,Low
P105_Exp6,C1,19,M,2,11,42,7,3,11,1,3462.53696255633,760,0,697,166,0,500,227,16,13,1039,810,149,440,142,440,18,Low
P105_Exp6,C1,19,M,2,11,43,5,1,9,1,1853.68502649715,346,625,1327,210,0,1516,243,6,19,556,812,0,0,0,0,18,Low
P105_Exp6,C1,19,M,2,11,44,8,4,12,1,308.020497390089,0,166,304,0,0,1636,383,1,12,93,811,0,127,0,126,18,Low
P105_Exp6,C1,19,M,2,12,45,5,1,9,1,1212.10953111733,143,0,707,587,0,308,2236,6,22,363,810,0,160,0,160,18,Low
P105_Exp6,C1,19,M,2,12,46,8,4,12,1,1941.6580234556,243,0,1392,796,0,0,NA,6,17,583,811,47,203,47,192,18,Low
P105_Exp6,C1,19,M,2,12,47,6,2,10,1,849.64193561234,317,0,283,1714,0,0,NA,5,15,255,814,0,0,0,0,18,Low
P105_Exp6,C1,19,M,2,12,48,7,3,11,1,352.059821082548,0,0,344,725,0,440,890,1,11,105,813,0,175,0,96,18,Low
P105_Exp6,C1,19,M,3,13,49,9,1,13,4,10018.6995217356,430,608,4150,400,526,913,1150,32,23,3006,808,646,0,617,0,18,Low
P105_Exp6,C1,19,M,3,13,50,11,3,15,1,1777.80417361441,323,401,497,551,0,707,404,7,24,534,810,0,0,0,0,18,Low
P105_Exp6,C1,19,M,3,13,51,10,2,14,2,1700.49341767663,180,439,887,217,0,727,340,7,26,510,808,27,0,0,0,18,Low
P105_Exp6,C1,19,M,3,13,52,12,4,16,2,2186.61608325499,348,498,1253,655,0,1067,253,12,19,656,808,0,1,0,0,18,Low
P105_Exp6,C1,19,M,3,14,53,10,2,14,1,1294.11901429967,0,134,171,420,0,545,247,5,39,388,810,276,41,273,39,18,Low
P105_Exp6,C1,19,M,3,14,54,11,3,15,1,1380.22471543809,256,544,583,526,0,771,247,4,22,414,810,6,37,0,36,18,Low
P105_Exp6,C1,19,M,3,14,55,12,4,16,1,1230.04535120003,267,249,654,830,0,573,270,6,22,370,809,48,0,48,0,18,Low
P105_Exp6,C1,19,M,3,14,56,9,1,13,1,343.773809078129,0,400,47,146,0,556,874,3,9,103,810,50,376,28,376,18,Low
P105_Exp6,C1,19,M,3,15,57,12,4,16,1,1299.50839347362,430,0,779,213,0,610,550,5,13,390,814,0,324,0,300,18,Low
P105_Exp6,C1,19,M,3,15,58,9,1,13,1,1240.00879011544,332,0,270,200,0,567,243,6,13,372,811,3,402,0,402,18,Low
P105_Exp6,C1,19,M,3,15,59,10,2,14,1,1568.0636269127,581,0,170,1259,0,0,NA,8,57,471,813,0,0,0,0,18,Low
P105_Exp6,C1,19,M,3,15,60,11,3,15,1,585.771845791442,0,0,329,1707,0,0,NA,6,62,175,813,0,0,0,0,18,Low
P105_Exp6,C1,19,M,3,16,61,10,2,14,2,4752.44293971411,2582,0,1003,649,0,1144,1250,13,25,1426,813,0,22,0,0,18,Low
P105_Exp6,C1,19,M,3,16,62,9,1,13,1,1490.34445661266,173,280,1024,580,0,163,263,5,22,447,811,0,12,0,0,18,Low
P105_Exp6,C1,19,M,3,16,63,12,4,16,1,1080.3691848497,230,0,689,788,0,1232,190,7,13,324,810,0,0,0,0,18,Low
P105_Exp6,C1,19,M,3,16,64,11,3,15,2,1174.23445701115,323,0,293,77,0,1759,207,8,11,353,811,0,175,0,172,18,Low
P105_Exp6,C1,19,M,3,17,65,9,1,13,1,1717.85691430728,217,200,930,936,0,0,NA,5,31,515,814,34,0,0,0,18,Low
P105_Exp6,C1,19,M,3,17,66,10,2,14,1,907.634662033388,213,0,0,1244,0,500,2199,6,21,273,811,0,28,0,28,18,Low
P105_Exp6,C1,19,M,3,17,67,11,3,15,1,1000.05191963805,156,0,563,287,0,1444,246,4,6,300,813,0,164,0,131,18,Low
P105_Exp6,C1,19,M,3,17,68,12,4,16,1,193.543430777254,0,131,23,230,0,2139,547,2,6,58,811,0,0,0,0,18,Low
P105_Exp6,C1,19,M,3,18,69,9,1,13,1,1211.72103940694,400,233,677,728,0,170,190,9,32,364,810,0,24,0,0,18,Low
P105_Exp6,C1,19,M,3,18,70,12,4,16,1,1156.16944154988,156,0,544,397,0,450,293,5,27,347,811,0,172,0,153,18,Low
P105_Exp6,C1,19,M,3,18,71,10,2,14,1,663.559537939364,177,0,96,114,0,846,1180,5,18,199,810,0,198,0,192,18,Low
P105_Exp6,C1,19,M,3,18,72,11,3,15,1,222.10043914356,0,0,160,0,0,756,276,2,9,66,812,0,428,0,409,18,Low
P106_Exp6,C1,19,F,1,1,1,2,2,6,2,3486.84169219359,424,380,2345,230,0,794,247,14,11,1047,812,0,9,0,0,31,High
P106_Exp6,C1,19,F,1,1,2,3,3,7,1,1386.18792735542,220,330,623,1107,0,327,413,7,17,416,813,31,70,28,70,31,High
P106_Exp6,C1,19,F,1,1,3,4,4,8,2,2196.4041424626,0,241,1766,685,0,748,510,13,22,659,806,51,73,50,43,31,High
P106_Exp6,C1,19,F,1,1,4,1,1,5,2,2086.09030636217,0,0,1571,471,0,434,263,16,21,626,808,0,209,0,205,31,High
P106_Exp6,C1,19,F,1,2,5,3,3,7,1,1167.63854996952,282,815,552,924,0,357,246,9,14,350,813,0,76,0,76,31,High
P106_Exp6,C1,19,F,1,2,6,4,4,8,1,1907.50818338074,243,556,1293,1283,0,370,256,10,13,572,812,0,56,0,44,31,High
P106_Exp6,C1,19,F,1,2,7,1,1,5,2,3110.92992901467,343,0,2440,660,0,904,303,12,14,933,805,0,70,0,70,31,High
P106_Exp6,C1,19,F,1,2,8,2,2,6,2,2861.80984613657,257,186,2307,544,0,577,256,11,11,859,810,0,296,0,271,31,High
P106_Exp6,C1,19,F,1,3,9,4,4,8,1,2110.39111184073,183,480,1456,1053,0,183,230,15,15,633,811,0,61,0,55,31,High
P106_Exp6,C1,19,F,1,3,10,1,1,5,1,2539.74810523505,320,0,1919,619,0,661,350,11,10,762,812,0,159,0,159,31,High
P106_Exp6,C1,19,F,1,3,11,2,2,6,1,1309.72358226154,277,759,910,570,0,253,267,6,15,393,810,0,26,0,0,31,High
P106_Exp6,C1,19,F,1,3,12,3,3,7,1,820.112037748913,311,0,337,523,0,210,506,6,10,246,813,0,61,0,53,31,High
P106_Exp6,C1,19,F,1,4,13,2,2,6,3,3476.24435072066,261,293,2706,517,0,470,1836,10,10,1043,805,0,207,0,177,31,High
P106_Exp6,C1,19,F,1,4,14,1,1,5,1,2228.3552462377,567,260,1316,809,0,857,403,11,15,669,810,0,60,0,56,31,High
P106_Exp6,C1,19,F,1,4,15,4,4,8,1,1668.02100451241,247,0,1073,1318,0,310,796,17,13,500,813,0,136,0,131,31,High
P106_Exp6,C1,19,F,1,4,16,3,3,7,1,729.735040805281,277,0,400,206,0,747,1197,4,8,219,810,0,152,0,148,31,High
P106_Exp6,C1,19,F,1,5,17,1,1,5,1,2874.14589176842,806,93,1800,1031,0,666,247,11,12,862,811,0,176,0,171,31,High
P106_Exp6,C1,19,F,1,5,18,3,3,7,1,1111.71355331953,170,166,693,1225,0,1136,1553,5,8,334,810,0,0,0,0,31,High
P106_Exp6,C1,19,F,1,5,19,2,2,6,1,1020.16655336956,294,0,673,297,0,403,343,4,7,307,812,0,264,0,253,31,High
P106_Exp6,C1,19,F,1,5,20,4,4,8,1,926.010591606428,197,0,647,243,0,0,NA,5,6,278,811,0,502,0,492,31,High
P106_Exp6,C1,19,F,1,6,21,2,2,6,1,1125.94828804049,140,157,766,1633,0,0,NA,4,28,338,811,0,58,0,58,31,High
P106_Exp6,C1,19,F,1,6,22,3,3,7,1,897.724048330929,127,742,551,1276,0,0,NA,6,20,269,809,3,49,0,49,31,High
P106_Exp6,C1,19,F,1,6,23,1,1,5,1,991.813601254762,242,443,436,322,0,1020,463,13,16,298,811,0,87,0,42,31,High
P106_Exp6,C1,19,F,1,6,24,4,4,8,1,1562.08834066001,170,0,904,2116,0,150,626,18,11,469,810,0,0,0,0,31,High
P106_Exp6,C1,19,F,2,7,25,7,3,11,1,1588.19365542058,523,869,411,993,0,246,254,6,11,476,812,116,0,116,0,31,High
P106_Exp6,C1,19,F,2,7,26,8,4,12,3,3477.36213223106,319,568,2595,1125,0,0,NA,26,15,1043,806,0,66,0,62,31,High
P106_Exp6,C1,19,F,2,7,27,6,2,10,1,1827.51269918117,264,1202,992,300,0,323,306,16,32,548,810,0,0,0,0,31,High
P106_Exp6,C1,19,F,2,7,28,5,1,9,1,1236.20114875212,400,947,643,86,0,0,NA,7,19,371,813,0,187,0,172,31,High
P106_Exp6,C1,19,F,2,8,29,7,3,11,1,915.484186847607,293,0,523,1486,0,0,NA,4,16,274,814,0,125,0,125,31,High
P106_Exp6,C1,19,F,2,8,30,8,4,12,1,1432.32637408983,291,0,970,1576,0,0,NA,10,28,430,814,0,65,0,60,31,High
P106_Exp6,C1,19,F,2,8,31,6,2,10,1,616.3965839296,153,0,239,461,0,1755,313,7,15,185,814,0,0,0,0,31,High
P106_Exp6,C1,19,F,2,8,32,5,1,9,1,424.244418336457,0,310,410,256,0,1469,734,2,9,127,811,0,0,0,0,31,High
P106_Exp6,C1,19,F,2,9,33,8,4,12,1,1669.63745603425,480,163,916,400,0,587,1377,14,11,501,812,0,259,0,231,31,High
P106_Exp6,C1,19,F,2,9,34,7,3,11,1,1122.33413788636,266,491,673,0,0,1580,786,6,9,336,812,0,49,0,49,31,High
P106_Exp6,C1,19,F,2,9,35,5,1,9,1,1560.19508502141,210,0,803,534,67,1541,246,10,10,468,811,0,0,0,0,31,High
P106_Exp6,C1,19,F,2,9,36,6,2,10,1,819.595859951733,287,0,448,609,0,407,433,6,13,246,813,0,105,0,101,31,High
P106_Exp6,C1,19,F,2,10,37,5,1,9,1,1884.33874303701,423,216,1156,379,0,1340,436,10,8,565,813,0,84,0,83,31,High
P106_Exp6,C1,19,F,2,10,38,7,3,11,1,866.306931996405,227,0,577,466,0,1505,646,5,12,260,814,0,65,0,60,31,High
P106_Exp6,C1,19,F,2,10,39,6,2,10,1,1298.19410216987,277,190,947,413,0,1431,270,4,9,389,814,0,47,0,34,31,High
P106_Exp6,C1,19,F,2,10,40,8,4,12,1,1293.62517402114,284,0,866,1830,0,304,1610,5,14,388,811,0,0,0,0,31,High
P106_Exp6,C1,19,F,2,11,41,7,3,11,1,923.563727733381,0,0,431,1351,0,457,490,5,12,278,811,0,48,0,48,31,High
P106_Exp6,C1,19,F,2,11,42,6,2,10,1,920.370066275609,278,0,540,1078,0,0,NA,5,11,276,812,0,310,0,291,31,High
P106_Exp6,C1,19,F,2,11,43,8,4,12,1,2204.23283905075,311,0,817,583,0,269,1473,11,17,662,812,164,89,145,87,31,High
P106_Exp6,C1,19,F,2,11,44,5,1,9,1,1109.56371807424,364,0,663,200,0,1001,253,5,10,333,810,0,179,0,163,31,High
P106_Exp6,C1,19,F,2,12,45,6,2,10,1,977.799524995135,220,294,342,662,0,773,294,9,25,294,810,0,61,0,61,31,High
P106_Exp6,C1,19,F,2,12,46,7,3,11,1,875.666352331791,84,0,144,109,0,521,310,9,14,262,811,2,323,0,314,31,High
P106_Exp6,C1,19,F,2,12,47,5,1,9,1,1385.49486055945,357,373,818,730,0,0,NA,8,16,416,813,0,0,0,0,31,High
P106_Exp6,C1,19,F,2,12,48,8,4,12,1,403.568026195899,242,0,0,0,0,1936,300,3,9,121,813,0,30,0,0,31,High
P106_Exp6,C1,19,F,3,13,49,11,3,15,2,2341.73656700114,570,947,1440,1200,140,150,2550,16,17,703,811,0,0,0,0,31,High
P106_Exp6,C1,19,F,3,13,50,10,2,14,2,2393.68578717949,250,324,1746,743,0,420,1263,12,19,719,810,0,0,0,0,31,High
P106_Exp6,C1,19,F,3,13,51,9,1,13,1,2523.75081954597,210,631,1427,1180,0,173,1860,17,12,757,812,76,73,56,73,31,High
P106_Exp6,C1,19,F,3,13,52,12,4,16,1,976.301401950877,0,471,846,578,0,622,577,5,18,293,811,0,46,0,42,31,High
P106_Exp6,C1,19,F,3,14,53,9,1,13,1,3446.4551565261,684,733,1769,802,0,500,227,16,15,1034,810,59,80,59,78,31,High
P106_Exp6,C1,19,F,3,14,54,10,2,14,1,1622.26772904705,318,0,1099,781,0,800,1693,12,13,487,812,0,184,0,178,31,High
P106_Exp6,C1,19,F,3,14,55,11,3,15,2,5672.16069007191,1259,796,3413,280,0,723,1067,32,22,1702,812,49,74,49,71,31,High
P106_Exp6,C1,19,F,3,14,56,12,4,16,1,1468.26532866908,390,433,879,1182,0,430,257,8,22,440,813,0,66,0,65,31,High
P106_Exp6,C1,19,F,3,15,57,11,3,15,1,812.215724888119,287,223,413,541,0,924,240,6,11,244,810,0,96,0,85,31,High
P106_Exp6,C1,19,F,3,15,58,10,2,14,1,717.738283971812,197,0,454,813,0,1192,230,7,25,216,813,0,0,0,0,31,High
P106_Exp6,C1,19,F,3,15,59,9,1,13,1,929.561653362725,323,0,530,210,0,0,NA,3,3,279,809,0,330,0,294,31,High
P106_Exp6,C1,19,F,3,15,60,12,4,16,1,1406.43507690766,49,0,663,400,0,236,1903,7,14,422,812,3,216,0,203,31,High
P106_Exp6,C1,19,F,3,16,61,10,2,14,1,3567.83632756742,483,0,2160,1172,0,0,NA,25,14,1070,813,47,299,45,286,31,High
P106_Exp6,C1,19,F,3,16,62,12,4,16,1,2602.33058803169,350,0,1126,928,0,313,1913,9,18,781,813,128,107,128,107,31,High
P106_Exp6,C1,19,F,3,16,63,11,3,15,1,1243.56890762283,173,600,643,396,0,384,1140,8,15,373,810,47,41,47,41,31,High
P106_Exp6,C1,19,F,3,16,64,9,1,13,1,1665.72024008656,211,0,1344,216,0,0,NA,6,9,500,814,0,549,0,530,31,High
P106_Exp6,C1,19,F,3,17,65,12,4,16,1,1639.86727891552,184,0,1189,689,0,440,504,10,9,492,811,0,265,0,249,31,High
P106_Exp6,C1,19,F,3,17,66,10,2,14,1,4094.02525709265,422,0,1619,1054,0,264,580,15,15,1229,810,372,136,369,133,31,High
P106_Exp6,C1,19,F,3,17,67,11,3,15,1,1075.69249326571,90,0,693,620,0,0,NA,7,17,323,810,0,12,0,0,31,High
P106_Exp6,C1,19,F,3,17,68,9,1,13,1,1371.51429057849,236,0,815,1586,0,530,397,6,13,412,812,0,51,0,39,31,High
P106_Exp6,C1,19,F,3,18,69,10,2,14,1,1655.5950050888,160,0,1144,200,0,1664,244,7,7,496,812,0,36,0,36,31,High
P106_Exp6,C1,19,F,3,18,70,9,1,13,1,1231.93045666358,110,0,794,1205,0,257,416,6,14,370,814,0,31,0,31,31,High
P106_Exp6,C1,19,F,3,18,71,12,4,16,1,1632.10318001711,207,419,1193,141,0,957,200,7,13,490,814,0,142,0,122,31,High
P106_Exp6,C1,19,F,3,18,72,11,3,15,1,878.103556736278,201,476,505,559,0,394,426,11,16,263,810,0,165,0,145,31,High
P107_Exp6,C1,19,M,1,1,1,1,1,5,3,5592.83255670925,453,50,1295,46,17,905,80,59,23,1678,810,1015,228,264,56,31,High
P107_Exp6,C1,19,M,1,1,2,4,4,8,3,5423.32185577106,464,0,1345,107,0,6,1134,44,13,1628,812,510,600,247,465,31,High
P107_Exp6,C1,19,M,1,1,3,3,3,7,3,6048.51636404965,541,0,820,234,24,942,430,64,25,1815,809,558,252,145,0,31,High
P107_Exp6,C1,19,M,1,1,4,2,2,6,4,6413.90486292585,488,357,459,17,0,1391,370,48,18,1925,808,1476,68,994,0,31,High
P107_Exp6,C1,19,M,1,2,5,1,1,5,1,6143.72135578014,339,0,1081,225,360,577,224,58,31,1843,811,1004,648,517,173,31,High
P107_Exp6,C1,19,M,1,2,6,2,2,6,1,3188.0120416281,323,7,941,161,13,294,266,37,37,956,811,609,561,250,149,31,High
P107_Exp6,C1,19,M,1,2,7,4,4,8,1,2979.75423511161,0,0,202,1060,0,0,NA,15,12,894,809,785,616,573,220,31,High
P107_Exp6,C1,19,M,1,2,8,3,3,7,1,7958.45469190863,329,30,1197,646,60,248,380,92,24,2388,811,1783,508,680,346,31,High
P107_Exp6,C1,19,M,1,3,9,1,1,5,1,2312.29026687288,542,0,556,896,38,63,4,38,27,694,810,192,461,0,86,31,High
P107_Exp6,C1,19,M,1,3,10,2,2,6,1,2795.57787409613,694,420,184,340,0,757,270,44,36,839,810,396,352,152,28,31,High
P107_Exp6,C1,19,M,1,3,11,3,3,7,1,3342.40490261982,375,0,125,149,0,1120,427,40,31,1003,811,547,309,365,184,31,High
P107_Exp6,C1,19,M,1,3,12,4,4,8,1,2610.05614214446,250,126,210,180,0,626,233,29,31,783,811,508,416,204,207,31,High
P107_Exp6,C1,19,M,1,4,13,1,1,5,1,8338.35369702319,502,16,761,1009,23,542,517,51,36,2502,811,1871,367,1289,29,31,High
P107_Exp6,C1,19,M,1,4,14,4,4,8,1,2468.22711986533,243,0,209,404,0,569,250,36,33,741,813,298,405,140,170,31,High
P107_Exp6,C1,19,M,1,4,15,3,3,7,1,2177.73113771545,137,0,473,460,23,1126,310,29,32,653,810,439,245,180,0,31,High
P107_Exp6,C1,19,M,1,4,16,2,2,6,1,9852.64249023749,1368,76,697,103,38,566,356,129,23,2956,813,1603,470,701,189,31,High
P107_Exp6,C1,19,M,1,5,17,1,1,5,1,1767.97980947413,74,400,40,313,0,0,NA,16,39,530,811,419,474,240,208,31,High
P107_Exp6,C1,19,M,1,5,18,2,2,6,1,2585.66318154226,10,7,220,569,22,6,2170,23,54,776,812,662,369,431,27,31,High
P107_Exp6,C1,19,M,1,5,19,3,3,7,1,1787.52889136558,0,27,369,456,10,0,NA,16,50,536,811,427,361,196,102,31,High
P107_Exp6,C1,19,M,1,5,20,4,4,8,1,1341.46099978898,0,0,19,557,0,0,NA,13,58,403,811,310,232,147,41,31,High
P107_Exp6,C1,19,M,1,6,21,3,3,7,1,2727.98785091072,33,0,40,53,7,0,NA,36,15,818,810,637,487,284,280,31,High
P107_Exp6,C1,19,M,1,6,22,2,2,6,1,5211.57852127544,83,51,385,0,7,80,2146,70,24,1564,810,836,641,105,360,31,High
P107_Exp6,C1,19,M,1,6,23,1,1,5,1,1740.28032133174,0,27,524,574,0,17,740,19,35,522,812,263,579,59,221,31,High
P107_Exp6,C1,19,M,1,6,24,4,4,8,1,1784.33073002998,7,0,134,31,0,20,314,26,36,535,812,400,656,90,239,31,High
P107_Exp6,C1,19,M,2,7,25,7,3,11,1,3481.63615458907,604,124,898,550,0,536,827,62,32,1044,814,198,185,55,0,31,High
P107_Exp6,C1,19,M,2,7,26,8,4,12,3,4470.72497593399,143,147,333,447,0,273,443,36,23,1342,807,935,484,600,321,31,High
P107_Exp6,C1,19,M,2,7,27,6,2,10,1,3077.63910190624,469,79,620,106,0,897,300,47,15,923,811,368,580,130,279,31,High
P107_Exp6,C1,19,M,2,7,28,5,1,9,4,7450.29839947165,230,24,1747,83,48,796,7,87,41,2235,814,1138,516,530,122,31,High
P107_Exp6,C1,19,M,2,8,29,7,3,11,1,1049.5725572091,263,39,471,191,0,157,410,18,39,315,812,38,580,0,127,31,High
P107_Exp6,C1,19,M,2,8,30,6,2,10,4,7792.18531767765,887,399,1360,173,24,6,444,91,22,2338,809,1577,498,531,218,31,High
P107_Exp6,C1,19,M,2,8,31,5,1,9,4,7602.40500525106,1430,233,1170,495,0,590,160,77,31,2281,813,945,217,562,91,31,High
P107_Exp6,C1,19,M,2,8,32,8,4,12,2,2681.55310157454,196,36,699,177,0,337,483,26,19,804,814,449,379,172,312,31,High
P107_Exp6,C1,19,M,2,9,33,5,1,9,1,2351.7533742197,153,24,278,172,0,377,257,20,37,706,813,506,344,334,208,31,High
P107_Exp6,C1,19,M,2,9,34,7,3,11,1,1857.99982552817,225,54,466,120,0,1350,324,32,10,557,811,232,273,26,232,31,High
P107_Exp6,C1,19,M,2,9,35,6,2,10,1,8329.54162303577,1181,132,1221,485,13,383,294,84,62,2500,804,1228,397,740,24,31,High
P107_Exp6,C1,19,M,2,9,36,8,4,12,1,1636.06433269888,173,212,526,47,0,334,263,11,16,491,813,267,290,239,196,31,High
P107_Exp6,C1,19,M,2,10,37,6,2,10,1,3807.3348524722,411,124,561,120,0,588,250,46,43,1142,812,756,321,445,132,31,High
P107_Exp6,C1,19,M,2,10,38,7,3,11,1,4088.3700726954,261,419,717,678,13,439,340,57,30,1226,812,592,167,247,98,31,High
P107_Exp6,C1,19,M,2,10,39,8,4,12,2,2636.92039551643,336,0,314,64,0,570,350,23,10,791,812,414,306,340,212,31,High
P107_Exp6,C1,19,M,2,10,40,5,1,9,1,1892.74130572448,297,298,265,245,0,392,206,24,53,568,810,231,299,58,129,31,High
P107_Exp6,C1,19,M,2,11,41,8,4,12,1,2422.14975001843,537,0,194,885,0,656,330,32,21,727,812,396,214,264,151,31,High
P107_Exp6,C1,19,M,2,11,42,6,2,10,1,4350.84388293762,997,0,794,219,0,715,620,58,23,1306,812,384,330,213,282,31,High
P107_Exp6,C1,19,M,2,11,43,5,1,9,1,5088.86089009502,565,184,1136,91,0,539,224,82,32,1527,812,547,330,261,145,31,High
P107_Exp6,C1,19,M,2,11,44,7,3,11,1,2246.2197853747102,64,10,508,508,573,406,253,37,35,674,810,121,215,0,139,31,High
P107_Exp6,C1,19,M,2,12,45,8,4,12,1,5063.43045138601,1052,0,665,779,0,337,487,67,14,1519,810,787,101,397,42,31,High
P107_Exp6,C1,19,M,2,12,46,7,3,11,1,4044.26532996877,214,0,2874,184,0,440,223,38,11,1214,810,102,383,0,379,31,High
P107_Exp6,C1,19,M,2,12,47,6,2,10,1,2179.88246342065,113,14,364,746,0,472,273,41,45,654,814,292,194,182,0,31,High
P107_Exp6,C1,19,M,2,12,48,5,1,9,1,1413.82426744894,83,10,93,818,0,207,200,23,34,424,809,213,288,28,195,31,High
P107_Exp6,C1,19,M,3,13,49,11,3,15,1,3295.16448268987,13,174,183,13,0,43,300,20,22,989,810,820,395,665,265,31,High
P107_Exp6,C1,19,M,3,13,50,9,1,13,1,1860.13062504389,171,0,92,0,0,353,107,21,17,558,810,425,635,274,508,31,High
P107_Exp6,C1,19,M,3,13,51,10,2,14,2,4778.55170230032,330,411,153,40,0,267,330,29,36,1434,810,1107,417,786,241,31,High
P107_Exp6,C1,19,M,3,13,52,12,4,16,1,1043.59822883271,110,114,154,19,0,826,946,5,19,313,810,239,420,193,250,31,High
P107_Exp6,C1,19,M,3,14,53,11,3,15,1,6400.55197336733,1520,588,190,41,63,614,260,48,33,1920,813,1328,449,845,91,31,High
P107_Exp6,C1,19,M,3,14,54,12,4,16,1,1560.05102568997,276,0,185,47,0,463,1453,15,15,468,810,304,522,218,447,31,High
P107_Exp6,C1,19,M,3,14,55,9,1,13,1,1746.40587942486,72,103,184,6,0,46,337,26,25,524,808,113,434,0,302,31,High
P107_Exp6,C1,19,M,3,14,56,10,2,14,1,374.298072258171,NA,237,NA,26,NA,356,773,NA,31,112,811,100,336,86,165,31,High
P107_Exp6,C1,19,M,3,15,57,11,3,15,1,868.288275833038,27,147,70,150,0,424,250,13,27,261,812,212,482,84,217,31,High
P107_Exp6,C1,19,M,3,15,58,10,2,14,1,2362.11879773327,210,319,17,23,0,0,NA,15,12,708,809,569,673,441,608,31,High
P107_Exp6,C1,19,M,3,15,59,9,1,13,1,1092.31381765676,37,0,61,0,13,44,873,15,14,328,811,223,672,93,365,31,High
P107_Exp6,C1,19,M,3,15,60,12,4,16,1,898.314467855016,129,0,141,34,4,601,27,9,21,269,814,186,524,104,413,31,High
P107_Exp6,C1,19,M,3,16,61,11,3,15,1,990.286584838032,6,21,59,156,6,1258,177,13,39,297,812,196,182,82,75,31,High
P107_Exp6,C1,19,M,3,16,62,10,2,14,1,2424.2871903607,135,24,33,159,0,312,236,13,18,727,810,651,657,540,540,31,High
P107_Exp6,C1,19,M,3,16,63,12,4,16,1,783.823008710897,94,20,150,207,0,795,260,7,30,235,814,178,310,92,170,31,High
P107_Exp6,C1,19,M,3,16,64,9,1,13,1,537.900853074461,63,106,0,176,0,218,190,4,36,161,812,112,310,69,85,31,High
P107_Exp6,C1,19,M,3,17,65,12,4,16,1,4332.26647460651,1269,53,237,70,0,190,613,39,11,1300,814,984,665,449,625,31,High
P107_Exp6,C1,19,M,3,17,66,9,1,13,1,2455.89148407635,149,7,347,100,13,0,NA,32,36,737,812,547,526,333,241,31,High
P107_Exp6,C1,19,M,3,17,67,10,2,14,1,3974.1484725655,0,0,469,407,47,46,2223,64,25,1193,811,575,617,195,537,31,High
P107_Exp6,C1,19,M,3,17,68,11,3,15,1,1040.39312481291,73,0,54,7,0,0,NA,8,7,312,810,270,747,160,709,31,High
P107_Exp6,C1,19,M,3,18,69,10,2,14,1,8776.24582646786,113,43,246,100,14,0,NA,39,6,2633,805,2342,756,2027,688,31,High
P107_Exp6,C1,19,M,3,18,70,12,4,16,1,1161.68569514957,103,0,0,250,0,0,NA,5,23,348,811,335,534,280,415,31,High
P107_Exp6,C1,19,M,3,18,71,11,3,15,1,2284.04291060178,0,10,40,296,0,0,NA,8,22,686,812,617,514,583,367,31,High
P107_Exp6,C1,19,M,3,18,72,9,1,13,1,929.909705899263,0,0,0,0,0,0,NA,3,13,279,808,258,706,200,617,31,High
P108_Exp6,C1,18,F,1,1,1,2,2,6,3,3484.14910344218,366,0,2606,2054,0,123,470,8,11,1045,814,20,40,0,39,19,Low
P108_Exp6,C1,18,F,1,1,2,1,1,5,3,3791.57707840568,340,236,2973,1130,0,877,536,9,9,1138,811,23,52,0,52,19,Low
P108_Exp6,C1,18,F,1,1,3,4,4,8,2,2593.25455100043,337,510,1862,930,196,860,276,9,8,778,806,0,58,0,35,19,Low
P108_Exp6,C1,18,F,1,1,4,3,3,7,1,2635.7839087359,397,1086,1878,846,0,470,230,11,11,790,813,0,24,0,0,19,Low
P108_Exp6,C1,18,F,1,2,5,2,2,6,3,5115.60832530449,537,160,3710,1407,0,474,1399,14,12,1534,815,131,44,131,44,19,Low
P108_Exp6,C1,18,F,1,2,6,4,4,8,3,5031.7929535413,400,717,4333,1375,0,193,230,11,11,1510,805,0,52,0,46,19,Low
P108_Exp6,C1,18,F,1,2,7,1,1,5,3,4383.65167540542,334,843,3386,803,0,363,313,14,11,1316,813,42,77,42,77,19,Low
P108_Exp6,C1,18,F,1,2,8,3,3,7,1,2064.20229646028,453,727,1504,1018,0,217,350,6,12,619,810,0,75,0,75,19,Low
P108_Exp6,C1,18,F,1,3,9,2,2,6,1,2573.7024505579,650,633,1777,1401,0,176,220,7,10,772,812,0,61,0,58,19,Low
P108_Exp6,C1,18,F,1,3,10,3,3,7,3,4408.26861295136,580,1104,3390,570,0,467,250,16,10,1323,811,0,102,0,94,19,Low
P108_Exp6,C1,18,F,1,3,11,1,1,5,4,5695.25039082873,403,467,4600,884,0,526,1280,15,8,1709,810,46,90,46,90,19,Low
P108_Exp6,C1,18,F,1,3,12,4,4,8,2,3364.68064721339,327,463,2550,1795,0,0,NA,12,13,1010,804,0,34,0,33,19,Low
P108_Exp6,C1,18,F,1,4,13,3,3,7,1,1620.24860233214,414,590,915,1194,0,360,2250,6,10,486,813,0,40,0,35,19,Low
P108_Exp6,C1,18,F,1,4,14,2,2,6,4,7373.11992939067,1167,719,5197,661,0,723,1353,21,13,2212,812,92,97,85,90,19,Low
P108_Exp6,C1,18,F,1,4,15,1,1,5,3,4117.87918586924,236,790,3688,1289,0,110,2453,8,6,1235,813,1,110,0,105,19,Low
P108_Exp6,C1,18,F,1,4,16,4,4,8,1,1450.07321510639,176,1913,1087,293,0,0,NA,6,4,435,814,0,37,0,37,19,Low
P108_Exp6,C1,18,F,1,5,17,2,2,6,1,1745.59690610113,1023,620,664,1274,0,207,1993,3,14,524,810,0,34,0,28,19,Low
P108_Exp6,C1,18,F,1,5,18,3,3,7,1,2949.64322163287,480,559,2247,817,0,0,NA,8,5,885,813,0,339,0,326,19,Low
P108_Exp6,C1,18,F,1,5,19,4,4,8,1,1663.6980162948,450,427,1106,1221,0,653,1820,4,9,499,810,0,49,0,49,19,Low
P108_Exp6,C1,18,F,1,5,20,1,1,5,1,1048.00743531086,220,503,767,653,0,513,367,3,8,314,814,0,205,0,197,19,Low
P108_Exp6,C1,18,F,1,6,21,3,3,7,1,2893.49594502346,660,616,1890,646,0,413,1516,9,5,868,811,44,263,44,255,19,Low
P108_Exp6,C1,18,F,1,6,22,4,4,8,2,8218.60240198657,1741,493,3624,493,0,563,1107,19,8,2466,808,680,87,668,82,19,Low
P108_Exp6,C1,18,F,1,6,23,1,1,5,1,2033.80784046021,246,1059,1668,450,0,397,1800,6,6,610,814,0,149,0,148,19,Low
P108_Exp6,C1,18,F,1,6,24,2,2,6,1,1745.73757086546,400,327,1249,1776,0,0,NA,4,9,523,810,0,91,0,80,19,Low
P108_Exp6,C1,18,F,2,7,25,5,1,9,1,2175.92966278971,443,317,1454,837,0,1249,1100,4,7,653,811,0,22,0,0,19,Low
P108_Exp6,C1,18,F,2,7,26,6,2,10,1,2081.50889221724,280,533,1403,1405,0,384,206,6,10,625,814,81,21,81,0,19,Low
P108_Exp6,C1,18,F,2,7,27,7,3,11,1,1134.37590273679,430,694,633,766,0,513,906,4,11,340,814,0,60,0,55,19,Low
P108_Exp6,C1,18,F,2,7,28,8,4,12,1,1074.40894386673,187,288,576,936,0,1113,240,3,10,323,811,28,38,28,34,19,Low
P108_Exp6,C1,18,F,2,8,29,6,2,10,2,3955.57196980008,547,689,3198,384,0,929,470,8,9,1187,807,0,110,0,108,19,Low
P108_Exp6,C1,18,F,2,8,30,7,3,11,1,1006.12344510591,0,643,446,1026,0,283,220,2,15,302,812,0,86,0,84,19,Low
P108_Exp6,C1,18,F,2,8,31,8,4,12,2,2832.53618269009,430,1380,2148,227,0,110,2584,6,6,850,809,0,186,0,181,19,Low
P108_Exp6,C1,18,F,2,8,32,5,1,9,1,1408.02893951332,150,0,756,693,0,1096,417,5,5,422,812,0,189,0,165,19,Low
P108_Exp6,C1,18,F,2,9,33,8,4,12,1,2503.72988018353,643,393,1649,1073,0,654,340,9,8,751,812,0,87,0,82,19,Low
P108_Exp6,C1,18,F,2,9,34,5,1,9,1,923.891004727921,350,373,526,1100,0,847,1856,2,7,277,812,0,58,0,51,19,Low
P108_Exp6,C1,18,F,2,9,35,7,3,11,1,2071.69284610791,506,640,1449,1437,0,294,346,6,11,621,812,0,43,0,43,19,Low
P108_Exp6,C1,18,F,2,9,36,6,2,10,1,542.212862012093,146,240,360,1248,0,697,363,3,14,163,811,0,34,0,33,19,Low
P108_Exp6,C1,18,F,2,10,37,5,1,9,1,1462.59841628489,183,0,987,1559,0,904,353,4,6,439,810,0,37,0,33,19,Low
P108_Exp6,C1,18,F,2,10,38,8,4,12,1,1653.9954679356,420,146,1114,1560,0,159,2150,5,12,497,812,0,114,0,106,19,Low
P108_Exp6,C1,18,F,2,10,39,6,2,10,1,1444.23441994149,260,227,1127,1193,0,240,270,4,9,433,815,0,229,0,224,19,Low
P108_Exp6,C1,18,F,2,10,40,7,3,11,1,451.520915132278,253,457,0,699,0,563,333,1,10,136,813,0,232,0,220,19,Low
P108_Exp6,C1,18,F,2,11,41,6,2,10,1,3248.08978154761,1349,174,1763,1584,0,483,300,6,10,975,809,0,49,0,49,19,Low
P108_Exp6,C1,18,F,2,11,42,7,3,11,1,1285.7716383005,494,531,770,1223,0,207,1310,2,11,385,813,0,70,0,68,19,Low
P108_Exp6,C1,18,F,2,11,43,5,1,9,1,1739.83538600442,357,423,1269,1440,0,203,876,4,17,522,812,0,82,0,73,19,Low
P108_Exp6,C1,18,F,2,11,44,8,4,12,1,1151.72626757339,326,0,780,483,0,0,NA,3,4,345,813,0,455,0,444,19,Low
P108_Exp6,C1,18,F,2,12,45,7,3,11,1,958.295010233996,343,453,584,1180,0,350,2349,3,9,288,811,0,77,0,70,19,Low
P108_Exp6,C1,18,F,2,12,46,5,1,9,1,1497.73230891515,193,453,1062,1020,0,703,387,5,8,449,809,0,97,0,52,19,Low
P108_Exp6,C1,18,F,2,12,47,6,2,10,1,2213.69392615088,320,517,1750,1554,0,139,2557,6,16,664,810,0,51,0,40,19,Low
P108_Exp6,C1,18,F,2,12,48,8,4,12,1,910.254672649899,190,0,644,426,0,1846,414,3,6,273,810,0,0,0,0,19,Low
P108_Exp6,C1,18,F,3,13,49,11,3,15,2,2652.2287064181,363,314,2144,736,0,859,414,7,10,795,808,0,135,0,125,19,Low
P108_Exp6,C1,18,F,3,13,50,9,1,13,3,4035.17192645086,550,1057,3036,997,0,253,2390,11,7,1211,813,0,50,0,50,19,Low
P108_Exp6,C1,18,F,3,13,51,12,4,16,1,1697.80107164843,300,767,840,1470,0,0,NA,3,7,509,810,105,41,105,41,19,Low
P108_Exp6,C1,18,F,3,13,52,10,2,14,1,1903.75300233063,190,840,736,1197,0,176,380,4,13,572,812,248,71,241,56,19,Low
P108_Exp6,C1,18,F,3,14,53,9,1,13,3,4210.39554871459,927,377,2932,1298,0,660,340,11,10,1263,811,0,42,0,40,19,Low
P108_Exp6,C1,18,F,3,14,54,11,3,15,1,2738.31584431537,547,543,1936,1270,0,427,323,11,14,822,812,0,40,0,39,19,Low
P108_Exp6,C1,18,F,3,14,55,10,2,14,1,1494.10249389985,544,542,825,1495,0,266,1967,5,11,448,810,0,0,0,0,19,Low
P108_Exp6,C1,18,F,3,14,56,12,4,16,1,308.019612170028,57,673,193,1119,0,479,1384,2,9,92,812,0,49,0,49,19,Low
P108_Exp6,C1,18,F,3,15,57,11,3,15,1,1528.09507006168,650,760,800,1098,0,427,2203,4,8,458,810,0,47,0,43,19,Low
P108_Exp6,C1,18,F,3,15,58,9,1,13,1,2875.78999414836,1014,177,1589,1704,0,203,390,9,8,863,811,0,95,0,93,19,Low
P108_Exp6,C1,18,F,3,15,59,10,2,14,1,1378.18054050877,387,516,820,1377,0,306,1094,5,9,413,810,0,88,0,80,19,Low
P108_Exp6,C1,18,F,3,15,60,12,4,16,1,763.822048811562,334,126,384,460,0,240,2447,2,6,229,810,0,461,0,461,19,Low
P108_Exp6,C1,18,F,3,16,61,11,3,15,1,1143.49496398791,397,1057,690,610,0,323,364,3,11,343,810,0,140,0,138,19,Low
P108_Exp6,C1,18,F,3,16,62,10,2,14,1,977.519899082836,280,753,673,1224,0,406,2293,2,5,293,811,0,43,0,42,19,Low
P108_Exp6,C1,18,F,3,16,63,12,4,16,1,1460.26024188905,349,220,1034,1053,0,847,1490,2,9,438,810,0,60,0,57,19,Low
P108_Exp6,C1,18,F,3,16,64,9,1,13,1,811.617581406608,321,570,360,324,0,1172,347,4,8,244,810,0,99,0,47,19,Low
P108_Exp6,C1,18,F,3,17,65,11,3,15,1,1193.59908912156,320,366,799,425,0,870,330,5,10,358,810,0,226,0,189,19,Low
P108_Exp6,C1,18,F,3,17,66,9,1,13,1,1475.64130002138,217,383,1043,893,0,680,1907,5,10,443,811,0,145,0,145,19,Low
P108_Exp6,C1,18,F,3,17,67,12,4,16,1,1042.29240099448,240,1309,678,764,0,0,NA,5,8,312,811,0,73,0,73,19,Low
P108_Exp6,C1,18,F,3,17,68,10,2,14,1,1146.34297269367,393,0,626,914,0,450,1937,4,14,344,810,0,141,0,139,19,Low
P108_Exp6,C1,18,F,3,18,69,11,3,15,1,1102.14374912539,336,294,740,929,0,533,1406,2,14,330,813,0,180,0,174,19,Low
P108_Exp6,C1,18,F,3,18,70,12,4,16,1,1323.58238744564,303,123,817,286,0,987,320,4,5,397,812,1,344,0,344,19,Low
P108_Exp6,C1,18,F,3,18,71,10,2,14,1,1454.24878525591,306,203,863,276,0,556,2023,6,8,436,812,38,308,33,299,19,Low
P108_Exp6,C1,18,F,3,18,72,9,1,13,1,1869.61915769643,320,243,1440,1140,0,821,830,3,13,561,813,0,27,0,27,19,Low
P109_Exp6,C1,18,F,1,1,1,2,2,6,4,8171.00156633023,520,316,6296,130,0,1660,220,38,12,2452,812,48,91,48,91,18,Low
P109_Exp6,C1,18,F,1,1,2,3,3,7,3,4906.55875123775,745,736,2291,437,0,203,483,26,16,1472,807,73,50,48,45,18,Low
P109_Exp6,C1,18,F,1,1,3,1,1,5,3,7047.54197379225,933,1072,4668,191,0,860,333,45,12,2114,810,91,95,91,95,18,Low
P109_Exp6,C1,18,F,1,1,4,4,4,8,1,2896.17763122442,607,0,1460,206,0,1553,233,12,13,869,809,0,99,0,96,18,Low
P109_Exp6,C1,18,F,1,2,5,2,2,6,1,5035.27636852959,837,793,2728,364,0,925,253,36,17,1510,813,109,42,98,40,18,Low
P109_Exp6,C1,18,F,1,2,6,4,4,8,3,8115.3100918491,969,183,4716,878,0,444,383,44,16,2435,809,162,91,152,85,18,Low
P109_Exp6,C1,18,F,1,2,7,3,3,7,2,3534.17202938726,507,1159,1738,513,0,147,410,19,26,1061,813,39,64,37,64,18,Low
P109_Exp6,C1,18,F,1,2,8,1,1,5,1,3290.25962912056,1341,683,1303,830,0,113,544,16,29,987,812,0,54,0,52,18,Low
P109_Exp6,C1,18,F,1,3,9,2,2,6,1,2087.92966520195,307,879,1205,1305,0,0,NA,13,18,626,813,43,22,43,0,18,Low
P109_Exp6,C1,18,F,1,3,10,1,1,5,2,10908.4661775196,5400,814,3531,901,0,147,246,47,22,3273,812,205,71,201,66,18,Low
P109_Exp6,C1,18,F,1,3,11,3,3,7,1,2665.9444265533202,280,627,1761,1007,0,0,NA,22,19,800,813,42,64,42,59,18,Low
P109_Exp6,C1,18,F,1,3,12,4,4,8,1,1167.67964414976,227,293,720,387,0,143,273,5,24,351,813,0,199,0,188,18,Low
P109_Exp6,C1,18,F,1,4,13,2,2,6,1,1294.03765529423,303,880,829,873,0,226,477,11,15,388,811,0,132,0,130,18,Low
P109_Exp6,C1,18,F,1,4,14,1,1,5,3,9819.59260948497,910,1783,6625,223,0,0,NA,60,10,2947,812,220,67,211,42,18,Low
P109_Exp6,C1,18,F,1,4,15,3,3,7,1,3323.6249490983,623,624,1426,895,14,0,NA,23,24,998,811,133,53,133,52,18,Low
P109_Exp6,C1,18,F,1,4,16,4,4,8,1,2416.34566826542,247,213,1184,763,0,0,NA,12,13,725,814,143,110,134,110,18,Low
P109_Exp6,C1,18,F,1,5,17,3,3,7,1,2512.03332728619,384,313,724,1456,0,0,NA,19,25,753,811,66,60,66,45,18,Low
P109_Exp6,C1,18,F,1,5,18,1,1,5,1,1534.49712799193,277,0,1068,1584,0,80,410,10,38,461,813,0,118,0,118,18,Low
P109_Exp6,C1,18,F,1,5,19,4,4,8,1,993.640503726056,210,716,377,741,0,0,NA,6,23,298,810,0,104,0,99,18,Low
P109_Exp6,C1,18,F,1,5,20,2,2,6,1,1403.96656525263,323,137,887,1038,0,346,973,12,31,421,812,0,136,0,136,18,Low
P109_Exp6,C1,18,F,1,6,21,3,3,7,1,1197.98505270956,247,456,320,276,0,0,NA,9,9,359,814,0,110,0,110,18,Low
P109_Exp6,C1,18,F,1,6,22,1,1,5,1,1631.60169775801,390,183,867,217,0,1163,870,10,11,490,814,0,46,0,40,18,Low
P109_Exp6,C1,18,F,1,6,23,4,4,8,1,3695.93801815427,834,0,1871,213,0,147,2550,20,7,1109,810,104,258,98,258,18,Low
P109_Exp6,C1,18,F,1,6,24,2,2,6,1,1653.89796853924,257,0,1059,177,0,447,390,16,11,496,813,0,101,0,75,18,Low
P109_Exp6,C1,18,F,2,7,25,5,1,9,1,4382.03765287835,1047,0,2152,196,0,2234,240,14,7,1315,814,178,53,176,48,18,Low
P109_Exp6,C1,18,F,2,7,26,6,2,10,1,3128.40006508122,1060,143,1488,174,0,1910,227,18,11,939,810,48,49,48,45,18,Low
P109_Exp6,C1,18,F,2,7,27,8,4,12,1,4948.16593974974,1861,0,1743,1209,0,348,586,18,14,1484,809,94,52,94,52,18,Low
P109_Exp6,C1,18,F,2,7,28,7,3,11,1,1127.96810954751,330,394,661,0,0,1580,856,8,7,339,810,0,50,0,50,18,Low
P109_Exp6,C1,18,F,2,8,29,8,4,12,1,6243.36211728587,2609,0,1242,943,60,423,17,21,13,1873,811,358,67,354,67,18,Low
P109_Exp6,C1,18,F,2,8,30,7,3,11,1,3332.13486551176,822,597,1500,667,0,557,387,18,14,1000,814,57,125,57,106,18,Low
P109_Exp6,C1,18,F,2,8,31,6,2,10,1,4174.22055570933,327,0,1113,17,1688,1485,240,34,14,1252,811,56,126,56,117,18,Low
P109_Exp6,C1,18,F,2,8,32,5,1,9,1,1609.81707241808,216,0,760,0,0,1956,114,12,7,483,811,7,73,0,46,18,Low
P109_Exp6,C1,18,F,2,9,33,7,3,11,1,2696.25104253282,707,0,750,303,206,280,53,14,13,809,810,128,136,103,118,18,Low
P109_Exp6,C1,18,F,2,9,34,6,2,10,1,2798.33019453508,320,710,434,546,347,500,3,15,19,840,814,95,160,92,156,18,Low
P109_Exp6,C1,18,F,2,9,35,5,1,9,1,2133.82380862822,387,1180,1078,933,0,0,NA,8,10,640,813,62,45,58,45,18,Low
P109_Exp6,C1,18,F,2,9,36,8,4,12,1,1369.89248804821,486,0,217,0,0,964,3,6,6,411,813,58,70,58,68,18,Low
P109_Exp6,C1,18,F,2,10,37,5,1,9,1,4760.47145033226,2229,446,610,0,0,1334,620,16,8,1428,811,155,144,154,143,18,Low
P109_Exp6,C1,18,F,2,10,38,6,2,10,1,2131.74040046215,500,0,668,0,0,216,1977,12,8,639,814,126,133,126,129,18,Low
P109_Exp6,C1,18,F,2,10,39,7,3,11,1,2663.93286004313,377,167,1532,580,0,0,NA,11,9,799,810,101,46,99,44,18,Low
P109_Exp6,C1,18,F,2,10,40,8,4,12,1,4422.4736412034,1116,0,1699,176,0,1280,386,16,12,1327,812,255,140,247,135,18,Low
P109_Exp6,C1,18,F,2,11,41,5,1,9,1,2424.25398623163,510,317,1228,230,0,1084,300,9,13,727,811,42,107,42,106,18,Low
P109_Exp6,C1,18,F,2,11,42,8,4,12,1,1994.04046255222,383,200,474,92,0,467,1517,8,13,599,810,99,151,99,147,18,Low
P109_Exp6,C1,18,F,2,11,43,7,3,11,1,1947.29961383564,450,170,719,137,0,470,487,15,17,584,809,37,86,37,56,18,Low
P109_Exp6,C1,18,F,2,11,44,6,2,10,1,583.421299121255,310,403,220,326,0,490,556,4,15,175,814,0,130,0,129,18,Low
P109_Exp6,C1,18,F,2,12,45,7,3,11,1,2543.69104946454,280,0,1061,374,0,0,NA,15,13,763,810,137,284,134,274,18,Low
P109_Exp6,C1,18,F,2,12,46,5,1,9,1,4010.8339035869,1506,0,1466,190,0,0,NA,13,12,1204,810,161,344,161,343,18,Low
P109_Exp6,C1,18,F,2,12,47,6,2,10,1,6427.34981847752,1304,190,3345,143,0,126,367,49,15,1928,811,162,226,162,221,18,Low
P109_Exp6,C1,18,F,2,12,48,8,4,12,1,2683.69867434012,550,0,1588,427,0,470,553,17,10,805,814,0,173,0,156,18,Low
P109_Exp6,C1,18,F,3,13,49,12,4,16,1,1579.78514513525,214,53,1019,279,0,1243,343,5,13,474,810,0,187,0,180,18,Low
P109_Exp6,C1,18,F,3,13,50,10,2,14,1,1415.62453495135,553,216,587,152,0,1546,377,12,8,425,814,0,88,0,76,18,Low
P109_Exp6,C1,18,F,3,13,51,11,3,15,1,3663.70405341149,2066,749,486,137,569,607,526,10,11,1099,810,0,149,0,149,18,Low
P109_Exp6,C1,18,F,3,13,52,9,1,13,1,2277.95810302996,414,0,467,166,0,1947,226,10,11,683,810,0,102,0,101,18,Low
P109_Exp6,C1,18,F,3,14,53,12,4,16,1,2915.31860418399,906,683,1247,0,0,920,336,11,12,875,814,51,0,43,0,18,Low
P109_Exp6,C1,18,F,3,14,54,11,3,15,1,2720.13477254222,750,0,644,0,540,2056,247,11,7,816,813,126,122,126,122,18,Low
P109_Exp6,C1,18,F,3,14,55,10,2,14,1,2443.91747143891,856,366,547,330,523,0,NA,16,13,734,810,60,154,53,154,18,Low
P109_Exp6,C1,18,F,3,14,56,9,1,13,1,2916.10614575256,1729,353,701,268,0,1416,240,12,19,875,813,55,118,55,108,18,Low
P109_Exp6,C1,18,F,3,15,57,12,4,16,1,3498.78880392862,1077,327,1254,849,0,140,327,17,30,1050,814,68,173,68,165,18,Low
P109_Exp6,C1,18,F,3,15,58,10,2,14,1,1639.04757276396,369,834,710,352,0,560,233,16,24,492,812,0,42,0,42,18,Low
P109_Exp6,C1,18,F,3,15,59,11,3,15,1,1493.57877422881,511,0,499,1335,0,600,450,12,12,448,810,0,45,0,45,18,Low
P109_Exp6,C1,18,F,3,15,60,9,1,13,1,643.788820532791,0,0,270,852,0,823,224,4,42,193,810,0,42,0,42,18,Low
P109_Exp6,C1,18,F,3,16,61,10,2,14,1,4074.09531577287,1549,280,1223,0,0,646,236,37,10,1222,812,61,196,61,175,18,Low
P109_Exp6,C1,18,F,3,16,62,11,3,15,1,2631.76952953654,819,233,797,394,0,27,2683,29,20,790,814,0,176,0,169,18,Low
P109_Exp6,C1,18,F,3,16,63,12,4,16,1,1623.80808496528,319,0,876,256,177,183,1197,9,8,487,811,0,307,0,297,18,Low
P109_Exp6,C1,18,F,3,16,64,9,1,13,1,1776.75626448763,834,193,517,253,0,167,1286,9,13,533,811,0,339,0,339,18,Low
P109_Exp6,C1,18,F,3,17,65,10,2,14,1,932.060126036959,374,926,294,103,0,630,410,10,17,279,814,0,91,0,91,18,Low
P109_Exp6,C1,18,F,3,17,66,12,4,16,1,1902.48037862693,286,423,460,293,0,1003,797,10,20,571,813,47,31,47,31,18,Low
P109_Exp6,C1,18,F,3,17,67,11,3,15,1,1067.97217252461,270,593,378,53,44,130,277,10,37,320,813,6,117,0,116,18,Low
P109_Exp6,C1,18,F,3,17,68,9,1,13,1,691.81346161713,0,0,183,67,219,506,147,5,16,208,810,0,51,0,49,18,Low
P109_Exp6,C1,18,F,3,18,69,12,4,16,1,3373.85374063888,740,411,1858,1217,0,0,NA,27,30,1013,811,49,103,48,103,18,Low
P109_Exp6,C1,18,F,3,18,70,10,2,14,1,1415.50741493484,306,771,580,609,0,130,514,17,22,425,814,61,82,59,57,18,Low
P109_Exp6,C1,18,F,3,18,71,9,1,13,1,1064.42416041318,486,0,322,176,0,1433,227,8,10,320,807,0,73,0,72,18,Low
P109_Exp6,C1,18,F,3,18,72,11,3,15,1,1016.0544982391,369,133,335,0,0,990,27,12,13,305,813,0,194,0,161,18,Low
P110_Exp6,C1,20,M,1,1,1,3,3,7,1,20144.4693542508,3613,0,8196,584,0,1689,270,318,16,6044,811,972,0,255,0,23,High
P110_Exp6,C1,20,M,1,1,2,1,1,5,1,8952.72033882793,3536,133,2651,535,143,1066,293,96,33,2686,813,320,20,116,0,23,High
P110_Exp6,C1,20,M,1,1,3,4,4,8,1,3170.46788542211,743,517,1619,256,0,536,277,29,40,951,813,101,29,39,0,23,High
P110_Exp6,C1,20,M,1,1,4,2,2,6,1,6164.33478092949,981,213,2552,140,0,2057,190,59,17,1850,809,635,2,457,0,23,High
P110_Exp6,C1,20,M,1,2,5,3,3,7,1,9015.74026643357,2113,1163,4051,193,0,515,217,73,23,2705,814,349,2,225,0,23,High
P110_Exp6,C1,20,M,1,2,6,2,2,6,2,2981.15544935717,552,466,1634,1232,0,407,216,20,19,894,805,0,0,0,0,23,High
P110_Exp6,C1,20,M,1,2,7,4,4,8,1,1849.59012521358,343,570,1330,551,0,400,333,6,28,555,814,0,94,0,79,23,High
P110_Exp6,C1,20,M,1,2,8,1,1,5,1,608.004730685934,220,367,139,709,0,493,227,4,22,182,812,0,111,0,111,23,High
P110_Exp6,C1,20,M,1,3,9,3,3,7,1,2370.27463738923,0,669,994,449,0,0,NA,16,16,712,812,278,326,260,278,23,High
P110_Exp6,C1,20,M,1,3,10,4,4,8,2,5467.56182986428,1112,717,2589,693,0,140,2566,46,11,1640,814,140,188,113,176,23,High
P110_Exp6,C1,20,M,1,3,11,1,1,5,1,1914.01881345882,466,169,818,1381,0,154,2410,20,33,574,809,4,48,0,43,23,High
P110_Exp6,C1,20,M,1,3,12,2,2,6,1,679.494126037753,343,176,269,1359,0,0,NA,4,23,204,810,0,165,0,144,23,High
P110_Exp6,C1,20,M,1,4,13,1,1,5,4,10075.0156738577,2732,223,3503,134,0,886,286,65,23,3023,811,563,217,401,174,23,High
P110_Exp6,C1,20,M,1,4,14,2,2,6,1,4119.99881672455,1702,193,1260,1156,0,0,NA,20,24,1236,811,166,295,132,263,23,High
P110_Exp6,C1,20,M,1,4,15,4,4,8,1,2019.58892684343,970,810,924,599,0,0,NA,6,14,606,814,0,273,0,245,23,High
P110_Exp6,C1,20,M,1,4,16,3,3,7,1,892.419527528546,660,134,170,1047,0,398,1596,3,14,268,810,0,177,0,167,23,High
P110_Exp6,C1,20,M,1,5,17,4,4,8,1,4600.40128699256,1861,466,1378,647,123,330,250,28,27,1381,812,128,209,122,161,23,High
P110_Exp6,C1,20,M,1,5,18,3,3,7,1,1569.60807958967,796,455,700,173,0,620,1283,6,23,471,813,0,218,0,164,23,High
P110_Exp6,C1,20,M,1,5,19,1,1,5,1,3341.62007775012,1770,0,1142,922,0,457,1513,25,23,1003,811,0,123,0,61,23,High
P110_Exp6,C1,20,M,1,5,20,2,2,6,1,463.538093135867,380,584,17,927,0,316,550,3,24,139,810,2,37,0,37,23,High
P110_Exp6,C1,20,M,1,6,21,3,3,7,1,4971.60956411608,2458,166,877,629,39,300,1066,27,19,1491,812,287,301,280,256,23,High
P110_Exp6,C1,20,M,1,6,22,4,4,8,1,3716.1732180939,1299,466,639,155,0,200,673,54,21,1115,814,158,253,156,216,23,High
P110_Exp6,C1,20,M,1,6,23,2,2,6,1,1777.84868033268,1157,233,415,1095,0,0,NA,11,20,533,811,6,296,0,289,23,High
P110_Exp6,C1,20,M,1,6,24,1,1,5,1,523.644207492907,78,276,260,264,0,0,NA,11,22,157,812,0,411,0,386,23,High
P110_Exp6,C1,20,M,2,7,25,6,2,10,1,8338.3195873248,4072,0,2647,924,0,1012,207,39,20,2502,812,234,0,207,0,23,High
P110_Exp6,C1,20,M,2,7,26,7,3,11,1,4526.15866562701,1937,587,1862,653,0,434,1536,18,13,1358,811,0,35,0,33,23,High
P110_Exp6,C1,20,M,2,7,27,5,1,9,2,3928.8178937677,900,663,2121,869,0,222,2053,13,25,1179,810,54,53,52,49,23,High
P110_Exp6,C1,20,M,2,7,28,8,4,12,2,3126.51316498523,844,459,1363,768,0,607,437,13,17,938,810,178,58,161,56,23,High
P110_Exp6,C1,20,M,2,8,29,7,3,11,3,5590.87381495192,1073,24,2558,610,0,1233,360,42,11,1678,811,304,0,293,0,23,High
P110_Exp6,C1,20,M,2,8,30,6,2,10,3,3232.66646361662,550,834,2093,521,0,73,2636,9,9,970,814,0,305,0,301,23,High
P110_Exp6,C1,20,M,2,8,31,8,4,12,2,927.649108423793,297,466,333,921,0,0,NA,6,23,278,810,0,243,0,199,23,High
P110_Exp6,C1,20,M,2,8,32,5,1,9,1,427.622696046456,0,0,300,32,0,0,NA,2,5,128,810,27,668,27,661,23,High
P110_Exp6,C1,20,M,2,9,33,8,4,12,3,4524.90566254346,232,1312,1976,170,0,557,340,42,17,1357,811,360,0,240,0,23,High
P110_Exp6,C1,20,M,2,9,34,6,2,10,1,2226.46936571982,755,1025,1020,356,0,423,1166,16,16,668,811,0,110,0,77,23,High
P110_Exp6,C1,20,M,2,9,35,7,3,11,1,1610.29309888545,590,1630,669,243,0,324,937,9,27,483,810,0,0,0,0,23,High
P110_Exp6,C1,20,M,2,9,36,5,1,9,1,1115.83079296543,632,97,347,1057,0,0,NA,5,22,335,814,0,292,0,255,23,High
P110_Exp6,C1,20,M,2,10,37,8,4,12,1,1558.34101304572,493,10,670,649,0,0,NA,7,7,467,811,0,530,0,515,23,High
P110_Exp6,C1,20,M,2,10,38,7,3,11,1,1081.90371949604,297,267,370,747,0,473,1883,21,17,325,814,5,189,0,171,23,High
P110_Exp6,C1,20,M,2,10,39,6,2,10,1,2944.26807685522,630,0,1723,840,0,241,317,34,12,883,808,0,334,0,299,23,High
P110_Exp6,C1,20,M,2,10,40,5,1,9,1,468.286283587076,6,635,346,364,0,167,553,6,21,141,813,2,333,0,265,23,High
P110_Exp6,C1,20,M,2,11,41,7,3,11,1,4417.69798188398,2850,370,406,197,144,783,247,49,18,1325,810,115,293,80,216,23,High
P110_Exp6,C1,20,M,2,11,42,5,1,9,2,3418.33278445847,553,349,835,26,0,0,NA,20,20,1026,813,513,387,508,362,23,High
P110_Exp6,C1,20,M,2,11,43,6,2,10,1,754.000267443189,330,0,364,553,0,479,1883,3,14,226,807,0,400,0,359,23,High
P110_Exp6,C1,20,M,2,11,44,8,4,12,1,373.509323264443,237,0,24,277,0,0,NA,2,9,113,811,0,651,0,641,23,High
P110_Exp6,C1,20,M,2,12,45,5,1,9,1,2459.58076466559,880,0,572,296,0,374,260,22,36,738,810,154,272,138,230,23,High
P110_Exp6,C1,20,M,2,12,46,7,3,11,1,1290.04651898504,674,340,567,726,0,267,2033,4,12,387,812,4,278,0,217,23,High
P110_Exp6,C1,20,M,2,12,47,6,2,10,1,936.280672689463,573,0,307,855,0,471,1147,4,17,281,813,0,194,0,162,23,High
P110_Exp6,C1,20,M,2,12,48,8,4,12,1,691.490174143837,250,0,324,220,0,120,270,2,24,208,811,0,476,0,469,23,High
P110_Exp6,C1,20,M,3,13,49,10,2,14,4,5848.31086067788,1286,545,3329,725,0,1013,804,29,13,1755,809,13,0,0,0,23,High
P110_Exp6,C1,20,M,3,13,50,11,3,15,2,9135.72308480798,5411,137,1461,1650,0,647,396,25,10,2741,813,386,0,353,0,23,High
P110_Exp6,C1,20,M,3,13,51,9,1,13,2,3185.11603786828,1573,1687,1085,450,0,23,764,13,18,956,813,0,0,0,0,23,High
P110_Exp6,C1,20,M,3,13,52,12,4,16,1,972.084081306093,320,1080,359,676,0,0,NA,5,8,291,812,0,233,0,220,23,High
P110_Exp6,C1,20,M,3,14,53,9,1,13,3,7242.8679794757,2520,960,3651,407,0,229,2037,29,33,2173,811,28,89,0,81,23,High
P110_Exp6,C1,20,M,3,14,54,11,3,15,1,1338.397164247,529,720,660,1133,0,0,NA,6,10,402,812,0,138,0,130,23,High
P110_Exp6,C1,20,M,3,14,55,10,2,14,1,1741.66674464504,637,363,881,977,0,211,2476,6,20,523,811,0,111,0,106,23,High
P110_Exp6,C1,20,M,3,14,56,12,4,16,1,977.832621607377,540,414,254,695,0,203,1497,5,21,293,810,0,283,0,271,23,High
P110_Exp6,C1,20,M,3,15,57,11,3,15,1,1658.05754034227,526,0,987,657,0,137,360,5,7,498,811,27,434,0,415,23,High
P110_Exp6,C1,20,M,3,15,58,9,1,13,1,1287.61175076215,687,0,512,579,0,623,1060,4,14,386,812,0,269,0,259,23,High
P110_Exp6,C1,20,M,3,15,59,10,2,14,1,1317.88154034439,930,0,343,1900,0,103,2604,2,10,396,813,0,43,0,35,23,High
P110_Exp6,C1,20,M,3,15,60,12,4,16,1,1347.77883997594,587,0,686,423,0,669,1824,3,8,404,809,0,299,0,282,23,High
P110_Exp6,C1,20,M,3,16,61,11,3,15,1,1040.25698788246,550,280,444,1447,0,0,NA,3,9,312,812,0,234,0,228,23,High
P110_Exp6,C1,20,M,3,16,62,9,1,13,1,1359.55332598314,591,1213,626,1036,0,0,NA,9,13,407,811,0,0,0,0,23,High
P110_Exp6,C1,20,M,3,16,63,12,4,16,1,1396.0896402823,663,696,654,574,0,204,983,3,17,419,809,0,192,0,177,23,High
P110_Exp6,C1,20,M,3,16,64,10,2,14,1,1172.34874840142,367,100,546,420,0,317,474,8,7,352,812,0,467,0,467,23,High
P110_Exp6,C1,20,M,3,17,65,9,1,13,1,1547.42017501121,558,287,673,1108,0,103,927,8,13,464,809,12,188,0,175,23,High
P110_Exp6,C1,20,M,3,17,66,12,4,16,1,1551.65460702847,534,397,920,1733,0,0,NA,4,16,466,813,0,80,0,77,23,High
P110_Exp6,C1,20,M,3,17,67,10,2,14,1,994.208294330747,390,0,547,2353,0,0,NA,4,10,298,811,0,54,0,52,23,High
P110_Exp6,C1,20,M,3,17,68,11,3,15,1,2003.54710654574,1089,450,777,1343,0,163,553,5,9,601,813,0,36,0,36,23,High
P110_Exp6,C1,20,M,3,18,69,9,1,13,1,2397.63151929219,410,713,1591,1208,0,0,NA,13,11,719,809,2,93,0,90,23,High
P110_Exp6,C1,20,M,3,18,70,11,3,15,1,1215.70670008077,510,0,651,997,0,990,446,5,13,365,814,0,18,0,0,23,High
P110_Exp6,C1,20,M,3,18,71,10,2,14,1,967.665517302521,350,197,540,603,0,1264,460,3,9,290,813,0,4,0,0,23,High
P110_Exp6,C1,20,M,3,18,72,12,4,16,1,1771.63648964779,1343,456,350,910,0,413,567,3,11,532,812,0,175,0,166,23,High
P111_Exp6,C1,17,M,1,1,1,2,2,6,2,9162.47867012135,1323,0,3669,977,0,1603,193,18,5,2749,810,791,0,755,0,22,Low
P111_Exp6,C1,17,M,1,1,2,4,4,8,2,9673.45520053641,2613,1247,5423,516,0,710,210,23,9,2903,812,39,4,39,0,22,Low
P111_Exp6,C1,17,M,1,1,3,3,3,7,2,3710.90643951538,416,374,2939,1336,0,244,243,8,9,1114,810,0,96,0,96,22,Low
P111_Exp6,C1,17,M,1,1,4,1,1,5,2,5972.01314521226,926,897,3504,470,0,1023,227,19,13,1792,807,82,42,79,29,22,Low
P111_Exp6,C1,17,M,1,2,5,4,4,8,1,2992.42281775514,681,953,1609,936,0,240,216,14,7,898,811,0,128,0,126,22,Low
P111_Exp6,C1,17,M,1,2,6,1,1,5,2,4473.3127850086,430,974,3786,319,0,1000,214,10,8,1342,807,1,62,0,59,22,Low
P111_Exp6,C1,17,M,1,2,7,3,3,7,1,2496.16205547136,1473,634,497,287,0,747,300,5,10,749,810,54,216,53,192,22,Low
P111_Exp6,C1,17,M,1,2,8,2,2,6,3,6445.22873267852,3232,1862,2713,229,0,293,250,11,5,1934,811,21,83,0,81,22,Low
P111_Exp6,C1,17,M,1,3,9,4,4,8,1,4539.95407566981,720,1836,1595,200,0,137,230,11,8,1362,812,441,115,436,112,22,Low
P111_Exp6,C1,17,M,1,3,10,3,3,7,3,5878.63468243813,1796,2005,3771,284,0,27,403,10,10,1764,811,1,88,0,82,22,Low
P111_Exp6,C1,17,M,1,3,11,2,2,6,2,3468.58723373953,733,603,2262,493,0,240,280,11,6,1041,813,0,408,0,375,22,Low
P111_Exp6,C1,17,M,1,3,12,1,1,5,1,1593.94429131862,240,1946,1276,220,0,0,NA,5,9,478,811,0,115,0,88,22,Low
P111_Exp6,C1,17,M,1,4,13,3,3,7,1,5591.74255570906,1639,1340,1997,220,0,120,230,16,5,1676,811,318,298,311,297,22,Low
P111_Exp6,C1,17,M,1,4,14,4,4,8,1,3120.08303447146,656,224,1566,490,0,0,NA,10,7,936,813,162,47,159,47,22,Low
P111_Exp6,C1,17,M,1,4,15,1,1,5,1,2507.57582389269,947,230,1396,1761,0,197,203,9,5,753,811,1,58,0,57,22,Low
P111_Exp6,C1,17,M,1,4,16,2,2,6,1,2519.74664645968,1197,391,1003,1202,0,0,NA,7,12,756,813,0,42,0,42,22,Low
P111_Exp6,C1,17,M,1,5,17,3,3,7,1,1971.7363435193,677,1062,557,802,0,167,226,6,12,592,812,81,58,76,53,22,Low
P111_Exp6,C1,17,M,1,5,18,1,1,5,1,1726.32704074931,207,0,1427,263,0,0,NA,4,9,518,811,2,630,0,618,22,Low
P111_Exp6,C1,17,M,1,5,19,4,4,8,1,6938.18779712092,1450,820,2147,1344,0,394,623,21,11,2082,812,403,0,400,0,22,Low
P111_Exp6,C1,17,M,1,5,20,2,2,6,1,1812.28739924336,1393,1575,156,460,0,0,NA,4,8,544,810,0,52,0,47,22,Low
P111_Exp6,C1,17,M,1,6,21,3,3,7,1,2522.29219573201,2513,2504,0,0,0,0,NA,1,6,756,812,0,44,0,41,22,Low
P111_Exp6,C1,17,M,1,6,22,4,4,8,1,1837.79541487093,1836,2368,0,0,0,0,NA,1,9,552,812,0,67,0,62,22,Low
P111_Exp6,C1,17,M,1,6,23,1,1,5,1,1813.79607412237,1809,2693,0,0,0,0,NA,1,1,544,809,0,0,0,0,22,Low
P111_Exp6,C1,17,M,1,6,24,2,2,6,1,2262.06419203299,2257,2678,0,0,0,0,NA,2,6,679,810,0,0,0,0,22,Low
P111_Exp6,C1,17,M,2,7,25,8,4,12,1,3697.88528939534,1643,459,1632,419,0,992,207,11,14,1109,815,0,48,0,48,22,Low
P111_Exp6,C1,17,M,2,7,26,6,2,10,3,7838.44108425546,3287,547,3587,1199,0,287,223,20,9,2352,812,101,146,94,139,22,Low
P111_Exp6,C1,17,M,2,7,27,5,1,9,1,1827.3418494864,1277,1030,244,226,0,640,1243,5,11,549,815,2,152,0,144,22,Low
P111_Exp6,C1,17,M,2,7,28,7,3,11,2,5355.47223666799,670,620,3261,1300,0,183,200,13,9,1607,822,0,55,0,51,22,Low
P111_Exp6,C1,17,M,2,8,29,6,2,10,1,1623.71300041195,1180,2065,383,203,0,0,NA,4,14,487,817,0,90,0,85,22,Low
P111_Exp6,C1,17,M,2,8,30,8,4,12,1,1831.68193100573,1444,1584,0,0,0,453,510,8,19,549,824,81,68,78,50,22,Low
P111_Exp6,C1,17,M,2,8,31,5,1,9,1,1773.3308057941,1239,1106,250,0,0,347,1116,5,16,532,812,0,159,0,144,22,Low
P111_Exp6,C1,17,M,2,8,32,7,3,11,1,1871.93590033348,1856,210,0,47,0,640,337,3,12,561,812,0,93,0,78,22,Low
P111_Exp6,C1,17,M,2,9,33,8,4,12,1,1408.29789295458,909,1023,436,437,0,0,NA,4,15,423,811,0,261,0,260,22,Low
P111_Exp6,C1,17,M,2,9,34,7,3,11,1,1583.61297750162,1427,2703,0,0,0,0,NA,4,6,475,819,0,0,0,0,22,Low
P111_Exp6,C1,17,M,2,9,35,6,2,10,1,1977.97268266004,1680,1403,0,321,0,290,1963,6,10,594,810,75,145,74,124,22,Low
P111_Exp6,C1,17,M,2,9,36,5,1,9,1,1523.56149902698,1517,2733,0,0,0,0,NA,2,2,457,822,0,0,0,0,22,Low
P111_Exp6,C1,17,M,2,10,37,7,3,11,2,3692.07667980299,2239,1088,826,163,0,0,NA,10,18,1107,817,0,269,0,253,22,Low
P111_Exp6,C1,17,M,2,10,38,6,2,10,1,3192.08588640322,642,1584,1711,173,0,0,NA,8,16,958,821,66,82,64,76,22,Low
P111_Exp6,C1,17,M,2,10,39,8,4,12,1,1271.47575147683,1106,2359,0,0,0,0,NA,10,20,381,818,2,54,0,49,22,Low
P111_Exp6,C1,17,M,2,10,40,5,1,9,1,1965.53683077582,1963,2684,0,0,0,0,NA,1,6,590,814,0,0,0,0,22,Low
P111_Exp6,C1,17,M,2,11,41,7,3,11,1,4337.02190959229,4142,1410,0,0,0,0,NA,5,17,1301,813,0,89,0,80,22,Low
P111_Exp6,C1,17,M,2,11,42,5,1,9,1,1813.54855243626,1796,1841,0,133,0,0,NA,5,11,544,810,0,119,0,118,22,Low
P111_Exp6,C1,17,M,2,11,43,6,2,10,1,1261.83297055468,1073,755,0,295,0,336,1240,3,15,379,810,0,101,0,95,22,Low
P111_Exp6,C1,17,M,2,11,44,8,4,12,1,1268.14990517232,1257,190,0,538,0,1081,826,1,27,380,814,0,53,0,45,22,Low
P111_Exp6,C1,17,M,2,12,45,7,3,11,1,3864.45048222959,3400,1631,220,0,0,0,NA,9,24,1160,809,0,76,0,57,22,Low
P111_Exp6,C1,17,M,2,12,46,5,1,9,1,1462.25007478279,1454,2683,0,0,0,0,NA,3,3,439,810,0,0,0,0,22,Low
P111_Exp6,C1,17,M,2,12,47,8,4,12,1,1749.70546428085,1746,1200,0,1198,0,0,NA,1,26,525,814,0,13,0,0,22,Low
P111_Exp6,C1,17,M,2,12,48,6,2,10,1,983.970857643726,211,2117,0,236,0,0,NA,10,11,295,814,72,63,30,62,22,Low
P111_Exp6,C1,17,M,3,13,49,9,1,13,1,1487.67900421444,1272,1351,0,0,0,786,810,5,15,447,812,0,95,0,82,22,Low
P111_Exp6,C1,17,M,3,13,50,12,4,16,1,1413.68420639628,1378,1017,0,319,0,650,1236,4,15,424,809,0,67,0,63,22,Low
P111_Exp6,C1,17,M,3,13,51,11,3,15,1,1405.9953375363,1196,849,190,0,0,596,670,2,14,422,812,0,108,0,102,22,Low
P111_Exp6,C1,17,M,3,13,52,10,2,14,1,1000.33687098039,546,381,353,620,0,1023,440,4,9,300,813,0,0,0,0,22,Low
P111_Exp6,C1,17,M,3,14,53,11,3,15,1,1257.78387794708,630,0,530,70,0,460,4,5,5,378,811,0,58,0,58,22,Low
P111_Exp6,C1,17,M,3,14,54,10,2,14,1,1088.11953244731,880,1593,0,150,0,0,NA,5,15,326,812,0,89,0,88,22,Low
P111_Exp6,C1,17,M,3,14,55,9,1,13,1,1366.20411302647,836,147,400,500,56,510,4,6,21,410,814,1,123,0,107,22,Low
P111_Exp6,C1,17,M,3,14,56,12,4,16,1,1065.88061424918,676,0,290,832,0,1111,606,3,16,319,814,1,4,0,0,22,Low
P111_Exp6,C1,17,M,3,15,57,10,2,14,1,4017.12970830704,2211,1007,920,0,0,603,433,19,17,1206,813,188,91,169,75,22,Low
P111_Exp6,C1,17,M,3,15,58,9,1,13,1,1881.33689482856,660,1357,732,0,0,0,NA,10,12,564,810,24,83,0,83,22,Low
P111_Exp6,C1,17,M,3,15,59,12,4,16,1,1319.9468371713,1306,2663,0,0,0,0,NA,3,7,396,812,0,0,0,0,22,Low
P111_Exp6,C1,17,M,3,15,60,11,3,15,1,1347.65538098509,1169,2673,0,0,0,0,NA,5,3,404,810,0,0,0,0,22,Low
P111_Exp6,C1,17,M,3,16,61,9,1,13,1,1213.45576198655,1087,1075,0,257,0,0,NA,11,21,364,809,0,107,0,92,22,Low
P111_Exp6,C1,17,M,3,16,62,12,4,16,1,1533.80104870666,581,10,0,154,0,0,NA,13,34,460,814,2,11,0,0,22,Low
P111_Exp6,C1,17,M,3,16,63,11,3,15,1,1345.80621285568,70,1236,0,0,0,0,NA,10,20,403,810,35,70,0,70,22,Low
P111_Exp6,C1,17,M,3,16,64,10,2,14,1,1181.80981218393,107,1630,734,0,0,0,NA,5,13,355,813,5,287,0,282,22,Low
P111_Exp6,C1,17,M,3,17,65,11,3,15,1,1377.97467490964,1343,749,0,0,0,270,720,3,16,413,810,0,129,0,129,22,Low
P111_Exp6,C1,17,M,3,17,66,12,4,16,1,1165.61796959286,0,1394,0,0,0,0,NA,5,24,350,814,0,96,0,83,22,Low
P111_Exp6,C1,17,M,3,17,67,9,1,13,1,1320.36883146429,173,870,83,0,0,0,NA,8,25,396,813,134,96,0,95,22,Low
P111_Exp6,C1,17,M,3,17,68,10,2,14,1,771.999923934345,485,260,0,0,0,966,1620,4,17,232,812,0,306,0,287,22,Low
P111_Exp6,C1,17,M,3,18,69,9,1,13,1,1913.61583607431,1310,2501,217,0,0,0,NA,6,8,574,809,1,47,0,40,22,Low
P111_Exp6,C1,17,M,3,18,70,11,3,15,1,989.835310538183,807,1260,130,0,0,0,NA,4,32,297,812,0,52,0,49,22,Low
P111_Exp6,C1,17,M,3,18,71,12,4,16,1,1199.92568312227,1187,1912,0,0,0,0,NA,2,9,360,813,0,0,0,0,22,Low
P111_Exp6,C1,17,M,3,18,72,10,2,14,1,922.297206536314,900,1428,0,0,0,0,NA,2,25,277,812,0,242,0,224,22,Low
P112_Exp6,C1,23,M,1,1,1,4,4,8,3,6156.02378744006,277,310,5070,1427,0,333,277,16,14,1847,807,0,0,0,0,11,Low
P112_Exp6,C1,23,M,1,1,2,2,2,6,2,3284.96296683079,320,389,2283,1021,0,0,NA,13,26,985,809,112,138,112,128,11,Low
P112_Exp6,C1,23,M,1,1,3,3,3,7,2,2764.43270292657,267,306,2217,801,0,270,250,8,25,830,809,0,56,0,56,11,Low
P112_Exp6,C1,23,M,1,1,4,1,1,5,2,3509.56022338505,420,804,2672,821,0,246,250,11,16,1053,806,0,0,0,0,11,Low
P112_Exp6,C1,23,M,1,2,5,2,2,6,3,6085.76837825967,401,268,4949,748,0,427,247,22,22,1826,808,0,125,0,102,11,Low
P112_Exp6,C1,23,M,1,2,6,1,1,5,2,5244.84121030764,2302,426,2443,1010,0,127,250,22,32,1574,805,0,157,0,156,11,Low
P112_Exp6,C1,23,M,1,2,7,4,4,8,2,6164.05314954682,297,428,4765,606,0,440,294,18,18,1849,805,153,164,153,137,11,Low
P112_Exp6,C1,23,M,1,2,8,3,3,7,3,4894.420830944,553,552,3912,431,0,220,1873,13,15,1468,806,0,104,0,72,11,Low
P112_Exp6,C1,23,M,1,3,9,4,4,8,1,1736.36163039191,636,876,916,307,0,170,253,6,15,521,813,0,265,0,254,11,Low
P112_Exp6,C1,23,M,1,3,10,1,1,5,2,3244.40231209519,869,569,1893,915,0,0,NA,10,16,973,810,0,226,0,222,11,Low
P112_Exp6,C1,23,M,1,3,11,2,2,6,4,6084.26513677841,730,867,4665,616,0,57,223,17,24,1826,808,0,239,0,238,11,Low
P112_Exp6,C1,23,M,1,3,12,3,3,7,2,3377.25203232185,511,603,2383,1016,0,0,NA,10,16,1013,807,0,197,0,189,11,Low
P112_Exp6,C1,23,M,1,4,13,4,4,8,1,1323.91865471072,267,931,906,200,0,0,NA,5,15,397,812,0,295,0,294,11,Low
P112_Exp6,C1,23,M,1,4,14,2,2,6,1,3247.70431179786,1390,1188,1444,299,0,0,NA,13,12,974,809,1,238,0,228,11,Low
P112_Exp6,C1,23,M,1,4,15,1,1,5,1,2254.39011410344,640,295,1176,1080,0,0,NA,10,13,677,812,0,310,0,302,11,Low
P112_Exp6,C1,23,M,1,4,16,3,3,7,1,1717.59737337197,400,349,1080,251,0,40,1887,7,15,515,814,0,330,0,311,11,Low
P112_Exp6,C1,23,M,1,5,17,4,4,8,1,1647.87866365805,543,816,667,525,0,0,NA,6,14,494,809,0,292,0,292,11,Low
P112_Exp6,C1,23,M,1,5,18,2,2,6,1,1615.83124574827,480,1746,845,542,0,0,NA,7,13,485,814,0,50,0,49,11,Low
P112_Exp6,C1,23,M,1,5,19,3,3,7,1,3087.55234555792,947,1130,1620,793,0,0,NA,11,12,926,812,0,85,0,85,11,Low
P112_Exp6,C1,23,M,1,5,20,1,1,5,1,1908.29532718271,724,273,939,1352,0,0,NA,9,17,573,811,0,92,0,92,11,Low
P112_Exp6,C1,23,M,1,6,21,3,3,7,1,3592.08757679517,1646,884,1292,730,0,0,NA,14,15,1078,811,32,147,32,146,11,Low
P112_Exp6,C1,23,M,1,6,22,1,1,5,1,7890.02068013724,2929,833,3177,586,0,0,NA,25,11,2367,812,325,263,322,263,11,Low
P112_Exp6,C1,23,M,1,6,23,2,2,6,1,941.935939572431,267,924,536,697,0,0,NA,5,19,282,810,0,53,0,53,11,Low
P112_Exp6,C1,23,M,1,6,24,4,4,8,1,1121.94729538896,333,485,716,593,0,0,NA,3,17,337,812,0,337,0,313,11,Low
P112_Exp6,C1,23,M,2,7,25,8,4,12,3,5059.06290099665,1450,303,2916,1241,0,497,1076,14,11,1518,811,66,64,59,63,11,Low
P112_Exp6,C1,23,M,2,7,26,5,1,9,1,2560.12709333299,1127,737,1133,482,0,523,303,11,15,768,811,0,193,0,193,11,Low
P112_Exp6,C1,23,M,2,7,27,6,2,10,4,8050.56264396626,1583,937,5345,291,0,490,276,20,24,2415,814,55,159,54,158,11,Low
P112_Exp6,C1,23,M,2,7,28,7,3,11,1,2121.79757495323,1074,838,650,587,0,474,253,9,21,636,812,0,61,0,53,11,Low
P112_Exp6,C1,23,M,2,8,29,8,4,12,4,6160.20207429028,1454,976,4024,173,0,0,NA,19,16,1849,811,2,231,0,226,11,Low
P112_Exp6,C1,23,M,2,8,30,5,1,9,1,2697.81374958984,1060,1042,1096,294,0,276,380,6,15,810,809,105,163,105,163,11,Low
P112_Exp6,C1,23,M,2,8,31,7,3,11,1,1575.63342158392,880,477,553,950,0,0,NA,6,20,473,811,0,255,0,251,11,Low
P112_Exp6,C1,23,M,2,8,32,6,2,10,1,1146.27505515818,317,566,577,416,0,829,1224,4,12,343,810,0,76,0,70,11,Low
P112_Exp6,C1,23,M,2,9,33,7,3,11,1,3618.10271002832,1916,562,1168,399,0,500,4,9,10,1086,813,51,263,51,263,11,Low
P112_Exp6,C1,23,M,2,9,34,5,1,9,1,1961.502227241,1088,989,446,0,87,510,13,6,11,588,811,34,226,34,208,11,Low
P112_Exp6,C1,23,M,2,9,35,8,4,12,1,3196.7966467455,1495,796,977,236,0,1023,186,12,12,960,809,25,14,0,0,11,Low
P112_Exp6,C1,23,M,2,9,36,6,2,10,2,10637.8661094823,2471,348,6319,1142,0,357,216,35,15,3192,808,174,95,169,95,11,Low
P112_Exp6,C1,23,M,2,10,37,8,4,12,1,3749.92400782139,1480,384,1627,767,0,900,526,14,15,1125,814,18,0,0,0,11,Low
P112_Exp6,C1,23,M,2,10,38,6,2,10,2,3087.88378313329,1184,760,1530,624,0,243,180,10,29,927,807,0,111,0,111,11,Low
P112_Exp6,C1,23,M,2,10,39,7,3,11,1,830.317543161073,356,473,400,710,0,194,1703,3,13,249,810,0,29,0,29,11,Low
P112_Exp6,C1,23,M,2,10,40,5,1,9,1,1248.06623680342,344,0,807,847,0,487,87,5,15,375,814,0,116,0,113,11,Low
P112_Exp6,C1,23,M,2,11,41,8,4,12,1,1160.24342852324,223,580,656,439,0,0,NA,3,6,348,811,0,477,0,477,11,Low
P112_Exp6,C1,23,M,2,11,42,5,1,9,1,1427.64201481623,486,374,816,473,0,0,NA,6,9,429,810,0,377,0,377,11,Low
P112_Exp6,C1,23,M,2,11,43,7,3,11,1,2540.38331450283,942,443,730,842,0,213,237,13,17,762,812,155,165,153,116,11,Low
P112_Exp6,C1,23,M,2,11,44,6,2,10,1,2854.23749585243,1505,227,946,708,0,276,274,9,16,857,812,0,279,0,278,11,Low
P112_Exp6,C1,23,M,2,12,45,8,4,12,1,1606.31735721472,830,397,480,480,0,0,NA,4,7,482,812,0,515,0,515,11,Low
P112_Exp6,C1,23,M,2,12,46,7,3,11,2,5454.79604967477,2142,606,2080,547,0,354,210,18,15,1636,813,50,246,45,239,11,Low
P112_Exp6,C1,23,M,2,12,47,6,2,10,1,1302.41264219876,303,267,367,390,0,0,NA,5,7,390,813,51,581,51,581,11,Low
P112_Exp6,C1,23,M,2,12,48,5,1,9,1,1049.77117827002,110,197,667,1187,0,357,213,3,10,315,814,1,175,0,172,11,Low
P112_Exp6,C1,23,M,3,13,49,10,2,14,2,7033.3973166853,2376,584,3644,590,0,597,280,19,17,2110,814,56,204,56,204,11,Low
P112_Exp6,C1,23,M,3,13,50,12,4,16,1,1199.81761877716,423,799,693,630,0,504,240,3,21,360,814,0,56,0,54,11,Low
P112_Exp6,C1,23,M,3,13,51,11,3,15,1,864.110290833196,470,98,360,968,0,153,607,2,15,259,810,0,240,0,197,11,Low
P112_Exp6,C1,23,M,3,13,52,9,1,13,1,351.529397274135,146,493,160,10,0,1482,750,2,10,105,814,0,67,0,67,11,Low
P112_Exp6,C1,23,M,3,14,53,11,3,15,1,1602.34735080667,684,124,720,607,0,789,207,3,14,480,813,36,12,36,0,11,Low
P112_Exp6,C1,23,M,3,14,54,9,1,13,1,1571.68092281063,277,211,912,953,0,860,93,5,12,472,812,0,92,0,92,11,Low
P112_Exp6,C1,23,M,3,14,55,12,4,16,1,5053.50271866337,2268,0,1684,1083,0,1076,200,21,9,1516,813,163,79,138,79,11,Low
P112_Exp6,C1,23,M,3,14,56,10,2,14,1,1572.2420725906,524,0,686,200,0,640,3,4,7,472,812,18,376,0,376,11,Low
P112_Exp6,C1,23,M,3,15,57,9,1,13,1,1339.6305467104,527,10,712,787,0,864,153,3,13,402,812,0,103,0,102,11,Low
P112_Exp6,C1,23,M,3,15,58,10,2,14,1,1623.66228864994,350,477,1110,614,0,519,4,6,15,487,811,0,218,0,212,11,Low
P112_Exp6,C1,23,M,3,15,59,11,3,15,1,816.285780088947,254,1083,414,0,0,1006,166,5,17,245,814,0,0,0,0,11,Low
P112_Exp6,C1,23,M,3,15,60,12,4,16,1,984.053566106013,521,709,367,191,0,1319,13,4,16,296,813,0,0,0,0,11,Low
P112_Exp6,C1,23,M,3,16,61,10,2,14,2,2909.61836079441,1227,371,1407,1276,0,0,NA,8,20,873,811,0,132,0,131,11,Low
P112_Exp6,C1,23,M,3,16,62,9,1,13,1,1121.67622895504,227,0,810,340,0,596,353,4,11,336,812,0,325,0,325,11,Low
P112_Exp6,C1,23,M,3,16,63,11,3,15,1,3326.44760192125,1429,629,1153,647,0,537,190,11,18,998,811,0,58,0,58,11,Low
P112_Exp6,C1,23,M,3,16,64,12,4,16,1,1049.77963023339,407,147,316,1457,0,733,203,5,16,315,814,0,21,0,0,11,Low
P112_Exp6,C1,23,M,3,17,65,10,2,14,1,1249.97366308889,501,510,550,330,0,450,133,4,21,375,814,0,186,0,171,11,Low
P112_Exp6,C1,23,M,3,17,66,9,1,13,1,1290.38671037779,410,260,713,47,0,1063,180,5,15,387,812,0,71,0,66,11,Low
P112_Exp6,C1,23,M,3,17,67,12,4,16,1,4120.52464938461,1624,0,1762,1523,0,496,174,17,13,1237,812,95,79,95,75,11,Low
P112_Exp6,C1,23,M,3,17,68,11,3,15,1,931.703936290432,207,0,276,0,0,2276,200,4,7,280,814,0,4,0,0,11,Low
P112_Exp6,C1,23,M,3,18,69,10,2,14,1,791.90791226938,254,0,424,804,0,623,197,4,12,237,811,0,324,0,322,11,Low
P112_Exp6,C1,23,M,3,18,70,11,3,15,1,1394.01830634233,256,431,744,792,0,103,300,8,13,418,811,0,216,0,214,11,Low
P112_Exp6,C1,23,M,3,18,71,12,4,16,1,1372.04019148703,278,146,720,1046,0,0,NA,5,11,411,812,0,143,0,143,11,Low
P112_Exp6,C1,23,M,3,18,72,9,1,13,1,717.707550709747,266,203,333,377,0,293,183,4,17,215,814,0,365,0,362,11,Low
P113_Exp6,C1,25,F,1,1,1,1,1,5,2,9714.44582761819,1768,0,5790,1284,0,457,247,37,10,2915,810,213,64,198,40,26,High
P113_Exp6,C1,25,F,1,1,2,3,3,7,1,3724.43124191022,700,227,1877,796,0,896,334,15,13,1117,812,82,62,81,37,26,High
P113_Exp6,C1,25,F,1,1,3,4,4,8,1,2191.70455972403,281,70,1033,953,0,1091,250,8,9,658,811,88,78,88,76,26,High
P113_Exp6,C1,25,F,1,1,4,2,2,6,2,6786.84159051841,1135,0,3903,1033,0,913,267,30,10,2036,813,140,76,97,76,26,High
P113_Exp6,C1,25,F,1,2,5,4,4,8,1,5057.86529470856,897,646,2865,287,57,797,233,22,17,1518,811,95,58,79,58,26,High
P113_Exp6,C1,25,F,1,2,6,2,2,6,2,4414.68507911054,427,714,3028,758,0,357,247,16,22,1325,809,130,78,121,69,26,High
P113_Exp6,C1,25,F,1,2,7,3,3,7,2,3672.63537662029,386,262,2442,1103,146,310,273,15,11,1102,807,85,111,80,106,26,High
P113_Exp6,C1,25,F,1,2,8,1,1,5,1,1942.58266039446,304,328,1254,1487,0,160,2103,8,15,582,811,0,115,0,110,26,High
P113_Exp6,C1,25,F,1,3,9,2,2,6,2,3289.24889641257,262,350,2342,1077,0,266,264,11,13,987,807,39,124,39,100,26,High
P113_Exp6,C1,25,F,1,3,10,3,3,7,2,4494.74950737022,731,1371,2808,412,0,0,NA,16,25,1349,810,109,108,84,106,26,High
P113_Exp6,C1,25,F,1,3,11,4,4,8,1,1210.18361329516,253,362,530,856,0,197,1140,4,12,363,810,27,68,27,47,26,High
P113_Exp6,C1,25,F,1,3,12,1,1,5,1,677.564090180113,140,920,441,533,0,200,470,4,17,204,810,0,87,0,87,26,High
P113_Exp6,C1,25,F,1,4,13,3,3,7,1,2473.60415499475,663,276,1048,1297,0,240,2446,16,14,742,812,49,48,49,47,26,High
P113_Exp6,C1,25,F,1,4,14,1,1,5,1,3216.11962212387,615,922,1937,620,0,0,NA,8,27,965,814,39,97,39,73,26,High
P113_Exp6,C1,25,F,1,4,15,4,4,8,1,1503.52176023421,410,13,923,1611,0,224,1200,7,13,451,813,0,100,0,81,26,High
P113_Exp6,C1,25,F,1,4,16,2,2,6,1,395.817536174491,0,326,390,403,0,1198,683,1,28,119,810,0,105,0,100,26,High
P113_Exp6,C1,25,F,1,5,17,3,3,7,1,2002.06168015779,442,802,930,957,0,0,NA,10,18,601,813,52,101,36,88,26,High
P113_Exp6,C1,25,F,1,5,18,4,4,8,1,1834.28498638023,384,0,975,2305,0,0,NA,8,8,550,813,35,72,35,47,26,High
P113_Exp6,C1,25,F,1,5,19,2,2,6,1,1002.24852935503,143,0,603,2286,0,0,NA,4,5,301,813,0,42,0,41,26,High
P113_Exp6,C1,25,F,1,5,20,1,1,5,1,467.56460937354,0,856,197,0,0,888,1347,2,27,140,813,0,50,0,50,26,High
P113_Exp6,C1,25,F,1,6,21,3,3,7,1,1527.53142930283,543,250,850,1355,0,150,1879,8,15,458,811,0,95,0,95,26,High
P113_Exp6,C1,25,F,1,6,22,4,4,8,1,3460.28745194462,1040,0,1647,274,0,540,40,12,20,1038,810,101,77,101,77,26,High
P113_Exp6,C1,25,F,1,6,23,2,2,6,1,1170.28331047277,220,0,557,1579,0,93,2607,8,4,351,813,0,229,0,229,26,High
P113_Exp6,C1,25,F,1,6,24,1,1,5,1,981.995464907413,277,0,177,197,239,1518,270,6,16,294,814,0,180,0,180,26,High
P113_Exp6,C1,25,F,2,7,25,8,4,12,1,6017.7198843769,954,357,3314,904,90,651,227,29,13,1805,814,225,82,224,59,26,High
P113_Exp6,C1,25,F,2,7,26,6,2,10,2,4848.08737660114,748,795,2636,1022,0,127,263,19,16,1454,805,165,111,139,111,26,High
P113_Exp6,C1,25,F,2,7,27,5,1,9,1,5688.29388269614,733,311,3398,1518,0,0,NA,20,13,1706,813,257,86,256,85,26,High
P113_Exp6,C1,25,F,2,7,28,7,3,11,1,2523.67249531517,512,584,1446,1003,0,298,560,10,18,758,811,96,96,93,94,26,High
P113_Exp6,C1,25,F,2,8,29,6,2,10,1,2704.06950910888,197,0,1520,1780,0,280,2420,11,11,812,812,136,103,125,102,26,High
P113_Exp6,C1,25,F,2,8,30,7,3,11,1,11436.7049098778,1162,383,7152,203,0,899,254,38,13,3431,814,432,109,421,107,26,High
P113_Exp6,C1,25,F,2,8,31,5,1,9,1,3178.0452495027,775,0,1533,657,0,826,267,14,16,954,810,86,70,85,68,26,High
P113_Exp6,C1,25,F,2,8,32,8,4,12,1,1180.41150290742,124,348,623,903,0,561,146,7,12,354,810,0,148,0,141,26,High
P113_Exp6,C1,25,F,2,9,33,5,1,9,1,3862.30512141879,757,436,1896,361,0,1080,130,16,18,1159,810,82,77,79,72,26,High
P113_Exp6,C1,25,F,2,9,34,6,2,10,1,2414.26006510437,394,0,1598,424,0,1088,210,12,10,725,809,38,119,36,117,26,High
P113_Exp6,C1,25,F,2,9,35,7,3,11,1,3862.57950901222,697,0,2424,912,0,1023,1247,16,8,1159,810,112,118,105,118,26,High
P113_Exp6,C1,25,F,2,9,36,8,4,12,1,7813.75361020423,693,361,1313,0,493,1328,583,23,19,2344,810,893,100,834,96,26,High
P113_Exp6,C1,25,F,2,10,37,7,3,11,1,9841.81026988404,1687,0,5367,1306,143,410,233,37,10,2953,811,396,123,383,119,26,High
P113_Exp6,C1,25,F,2,10,38,5,1,9,1,2693.79310511363,365,466,1721,1320,0,0,NA,11,21,808,811,0,54,0,54,26,High
P113_Exp6,C1,25,F,2,10,39,8,4,12,1,1635.58973108206,477,160,743,618,0,459,1627,7,16,491,813,20,129,0,97,26,High
P113_Exp6,C1,25,F,2,10,40,6,2,10,1,1267.50435880831,274,0,742,1237,0,419,700,4,14,381,813,47,117,47,117,26,High
P113_Exp6,C1,25,F,2,11,41,7,3,11,1,2043.70158221127,547,217,819,563,60,984,4,8,15,613,811,75,138,45,128,26,High
P113_Exp6,C1,25,F,2,11,42,6,2,10,1,2763.68044017931,237,226,1613,964,0,764,233,10,13,830,809,101,33,98,33,26,High
P113_Exp6,C1,25,F,2,11,43,8,4,12,1,2309.78329115396,857,52,1258,1349,0,0,NA,13,13,693,811,0,92,0,92,26,High
P113_Exp6,C1,25,F,2,11,44,5,1,9,1,515.908745146135,0,1331,203,184,126,690,257,3,14,154,814,0,55,0,55,26,High
P113_Exp6,C1,25,F,2,12,45,6,2,10,1,1321.5161529472,312,310,727,1105,0,283,243,8,8,397,812,0,142,0,139,26,High
P113_Exp6,C1,25,F,2,12,46,7,3,11,1,998.267645325768,586,541,237,889,0,253,380,7,9,299,815,0,170,0,168,26,High
P113_Exp6,C1,25,F,2,12,47,8,4,12,1,1503.6141283349,417,201,847,351,0,20,1503,10,17,451,813,0,367,0,311,26,High
P113_Exp6,C1,25,F,2,12,48,5,1,9,1,1667.98648407166,283,0,1000,1607,106,651,104,7,8,500,813,31,47,31,41,26,High
P113_Exp6,C1,25,F,3,13,49,9,1,13,1,3508.30467708579,596,474,1816,544,0,260,221,12,18,1052,812,126,73,121,73,26,High
P113_Exp6,C1,25,F,3,13,50,10,2,14,1,4824.43208710856,1839,396,1991,737,0,200,217,19,12,1448,811,150,149,150,145,26,High
P113_Exp6,C1,25,F,3,13,51,12,4,16,1,1457.54659457543,226,0,1063,1720,0,187,2503,6,11,437,812,0,120,0,116,26,High
